"subj_idx","study","phase","trial","offer","fair_cat","rev_con","response","rt","rev_cat","rev_centered","fair_con"
1,"Victim","group",31,4.2,"fair",3,0,1.48680069600005,"Three",1,-1
1,"Victim","group",33,2.3,"amb",1,0,1.74491836099969,"One",-1,0
1,"Victim","group",34,2.4,"amb",0,0,1.25373506799997,"Zero",-3,0
1,"Victim","group",35,3.8,"fair",4,1,1.23376725400021,"Four",3,-1
1,"Victim","group",37,1.3,"unfair",1,0,1.59904111699962,"One",-1,1
1,"Victim","group",38,4.7,"fair",3,0,2.51064983400011,"Three",1,-1
1,"Victim","group",39,4.2,"fair",1,0,1.2433013750001,"One",-1,-1
1,"Victim","group",40,4.3,"fair",2,0,2.20251960299993,"Two",0,-1
1,"Victim","group",41,0.5,"unfair",4,1,1.79914280200001,"Four",3,1
1,"Victim","group",42,0.6,"unfair",4,1,0.685874100000092,"Four",3,1
1,"Victim","group",43,4.5,"fair",2,0,1.27641761099994,"Two",0,-1
1,"Victim","alone",44,4.1,"fair",NA,0,1.32990796200011,"Alone",NA,-1
1,"Victim","group",45,2.1,"amb",2,1,1.43838348500003,"Two",0,0
1,"Victim","group",46,2.6,"amb",2,1,2.72248867899998,"Two",0,0
1,"Victim","group",47,4.7,"fair",0,0,0.965488104000087,"Zero",-3,-1
1,"Victim","group",48,3.1,"amb",0,0,3.168024135,"Zero",-3,0
1,"Victim","group",49,4.4,"fair",2,0,2.03658461500027,"Two",0,-1
1,"Victim","group",50,2.8,"amb",3,1,1.02712948299995,"Three",1,0
1,"Victim","group",51,4.3,"fair",4,0,2.35249460900013,"Four",3,-1
1,"Victim","group",52,4,"fair",4,1,1.49184768399982,"Four",3,-1
1,"Victim","group",53,2.4,"amb",2,1,1.43057042600003,"Two",0,0
1,"Victim","group",54,0.300000000000001,"unfair",4,1,1.2205414619998,"Four",3,1
1,"Victim","group",55,2.9,"amb",3,1,1.324738669,"Three",1,0
1,"Victim","group",56,3,"amb",0,1,3.43371497499993,"Zero",-3,0
1,"Victim","group",57,3.8,"fair",1,0,4.69534464699973,"One",-1,-1
1,"Victim","group",58,2.6,"amb",1,0,4.38498579299994,"One",-1,0
1,"Victim","group",59,2.2,"amb",1,1,2.44109454199997,"One",-1,0
1,"Victim","group",61,0.300000000000001,"unfair",3,1,1.27127151400009,"Three",1,1
1,"Victim","group",62,2.4,"amb",2,1,2.12449964999996,"Two",0,0
1,"Victim","group",63,3.7,"fair",1,0,2.05047959900003,"One",-1,-1
1,"Victim","group",64,3.8,"fair",4,1,1.14219613800014,"Four",3,-1
1,"Victim","group",65,3,"amb",0,0,4.19121997000002,"Zero",-3,0
1,"Victim","group",66,2.2,"amb",3,1,1.22256730500021,"Three",1,0
1,"Victim","group",67,2.5,"amb",2,1,2.42133263400001,"Two",0,0
1,"Victim","group",68,2.5,"amb",1,1,2.91049526899997,"One",-1,0
1,"Victim","group",69,4.4,"fair",1,0,3.6206833010001,"One",-1,-1
1,"Victim","group",70,1.1,"unfair",2,0,1.51376298800005,"Two",0,1
1,"Victim","group",71,0.199999999999999,"unfair",0,0,2.13825306299987,"Zero",-3,1
1,"Victim","group",72,2.2,"amb",3,1,1.02270159200043,"Three",1,0
1,"Victim","group",73,0.4,"unfair",2,1,3.05573295400018,"Two",0,1
1,"Victim","group",74,0.800000000000001,"unfair",0,0,1.46247351000011,"Zero",-3,1
1,"Victim","group",75,2.7,"amb",4,1,1.62129845700019,"Four",3,0
1,"Victim","group",76,3,"amb",3,1,1.64411030799965,"Three",1,0
1,"Victim","group",77,2.7,"amb",1,0,2.1185177440002,"One",-1,0
1,"Victim","group",78,2.8,"amb",1,1,2.46585936800011,"One",-1,0
1,"Victim","group",79,2.2,"amb",3,1,0.983694010999898,"Three",1,0
1,"Victim","group",80,1.1,"unfair",4,1,0.851585271000204,"Four",3,1
1,"Victim","group",81,4.9,"fair",2,0,1.44331323699998,"Two",0,-1
1,"Victim","group",82,1.1,"unfair",3,1,1.3551275560003,"Three",1,1
1,"Victim","group",84,2.4,"amb",1,1,1.8152854660002,"One",-1,0
1,"Victim","group",85,0.5,"unfair",0,0,1.1666154200002,"Zero",-3,1
1,"Victim","group",86,2.1,"amb",3,1,2.812203125,"Three",1,0
1,"Victim","group",87,4,"fair",2,1,1.88644651100003,"Two",0,-1
1,"Victim","group",88,1.3,"unfair",0,0,1.79348648299992,"Zero",-3,1
1,"Victim","group",89,2.4,"amb",4,1,1.70059338200008,"Four",3,0
1,"Victim","group",90,4.8,"fair",4,0,1.4596772269997,"Four",3,-1
1,"Victim","group",91,4.6,"fair",0,0,1.41748639699972,"Zero",-3,-1
1,"Victim","group",92,4.9,"fair",3,0,1.86145879000014,"Three",1,-1
1,"Victim","group",93,4.4,"fair",0,0,1.53256267699999,"Zero",-3,-1
1,"Victim","group",94,0.199999999999999,"unfair",0,0,3.50484313799961,"Zero",-3,1
1,"Victim","group",95,0.6,"unfair",3,1,1.91282532000014,"Three",1,1
1,"Victim","group",96,1.1,"unfair",3,1,3.31792135199976,"Three",1,1
1,"Victim","group",97,2.2,"amb",4,1,1.00191417499991,"Four",3,0
1,"Victim","group",98,1.2,"unfair",4,1,0.793743317999997,"Four",3,1
1,"Victim","group",99,2.4,"amb",1,0,3.2045363000002,"One",-1,0
1,"Victim","group",100,3.9,"fair",0,0,0.712857674999668,"Zero",-3,-1
1,"Victim","group",101,2.9,"amb",3,1,1.05790058899993,"Three",1,0
1,"Victim","group",102,1.1,"unfair",4,1,1.65186056200037,"Four",3,1
1,"Victim","group",103,3.9,"fair",3,1,1.51135845999988,"Three",1,-1
1,"Victim","group",104,1.2,"unfair",1,0,0.644726085000002,"One",-1,1
1,"Victim","group",105,4,"fair",3,1,0.749215831000129,"Three",1,-1
1,"Victim","group",106,4.7,"fair",0,0,0.793181046999962,"Zero",-3,-1
1,"Victim","group",107,4,"fair",3,1,1.21595603100013,"Three",1,-1
1,"Victim","alone",108,4.9,"fair",NA,0,1.25845000300023,"Alone",NA,-1
1,"Victim","group",109,2.6,"amb",1,0,1.01448218300038,"One",-1,0
1,"Victim","group",110,0.6,"unfair",0,1,1.77788195499988,"Zero",-3,1
1,"Victim","group",111,0.699999999999999,"unfair",0,0,2.42136091400016,"Zero",-3,1
1,"Victim","alone",112,0.699999999999999,"unfair",NA,1,1.78353129600009,"Alone",NA,1
1,"Victim","group",113,0.5,"unfair",2,1,3.93662312900005,"Two",0,1
1,"Victim","group",114,1,"unfair",0,0,3.7665715940002,"Zero",-3,1
1,"Victim","group",115,1.2,"unfair",3,1,1.30982624500029,"Three",1,1
1,"Victim","group",116,3.9,"fair",4,1,2.35974779900016,"Four",3,-1
1,"Victim","alone",117,0.199999999999999,"unfair",NA,1,1.70318450900004,"Alone",NA,1
1,"Victim","group",118,0.6,"unfair",2,1,2.05922665699973,"Two",0,1
1,"Victim","group",119,0.800000000000001,"unfair",1,0,0.827799321999919,"One",-1,1
1,"Victim","group",120,0.199999999999999,"unfair",4,1,0.915229180000097,"Four",3,1
1,"Victim","group",121,2.9,"amb",0,0,1.37238927399994,"Zero",-3,0
1,"Victim","group",122,4.3,"fair",0,0,1.98083881299999,"Zero",-3,-1
1,"Victim","group",123,4.2,"fair",3,0,2.80928640000002,"Three",1,-1
1,"Victim","group",124,2,"amb",0,0,2.09555719399987,"Zero",-3,0
1,"Victim","group",125,2.7,"amb",0,0,1.79513604800013,"Zero",-3,0
1,"Victim","group",126,0.5,"unfair",1,0,0.748222626999905,"One",-1,1
1,"Victim","group",127,1.1,"unfair",2,1,1.53758974600032,"Two",0,1
1,"Victim","group",128,3.9,"fair",1,0,1.31187915300006,"One",-1,-1
1,"Victim","group",129,4.4,"fair",1,0,1.53252014700001,"One",-1,-1
1,"Victim","group",130,4.3,"fair",2,0,1.62455373500006,"Two",0,-1
1,"Victim","group",131,0.699999999999999,"unfair",3,1,1.16166480299989,"Three",1,1
1,"Victim","group",132,2.4,"amb",2,1,3.07850155599999,"Two",0,0
1,"Victim","alone",133,2.3,"amb",NA,1,1.32321507500001,"Alone",NA,0
1,"Victim","alone",134,0.5,"unfair",NA,1,2.2349489459998,"Alone",NA,1
1,"Victim","group",135,4.5,"fair",4,0,1.94299663699985,"Four",3,-1
1,"Victim","group",136,2.3,"amb",0,0,2.78040323200003,"Zero",-3,0
1,"Victim","group",137,4.4,"fair",4,0,1.88521530200023,"Four",3,-1
1,"Victim","group",138,2.1,"amb",2,1,1.62138761999995,"Two",0,0
1,"Victim","group",139,3.9,"fair",0,0,1.84245951000003,"Zero",-3,-1
1,"Victim","group",140,2.7,"amb",1,0,1.22673518100009,"One",-1,0
1,"Victim","group",141,4.2,"fair",4,1,1.46638032700002,"Four",3,-1
1,"Victim","group",142,0.800000000000001,"unfair",2,1,1.27466806199982,"Two",0,1
1,"Victim","group",143,1.1,"unfair",1,1,2.03298247500015,"One",-1,1
1,"Victim","group",144,2,"amb",4,1,1.60180087400022,"Four",3,0
1,"Victim","alone",145,2.6,"amb",NA,1,3.91119336999964,"Alone",NA,0
1,"Victim","group",146,0.5,"unfair",1,1,3.20983154099986,"One",-1,1
1,"Victim","group",147,3.7,"fair",0,0,0.994276892000016,"Zero",-3,-1
1,"Victim","group",148,2.3,"amb",3,1,1.01626868199992,"Three",1,0
1,"Victim","group",149,1.9,"amb",1,1,2.58026869500009,"One",-1,0
1,"Victim","group",150,0.5,"unfair",0,0,1.29828133000001,"Zero",-3,1
1,"Victim","group",151,0.699999999999999,"unfair",3,1,0.897751140999844,"Three",1,1
1,"Victim","group",152,3,"amb",2,1,1.43122155499987,"Two",0,0
1,"Victim","alone",153,4,"fair",NA,1,1.2085730939998,"Alone",NA,-1
1,"Victim","group",154,3.9,"fair",2,1,1.39652100600006,"Two",0,-1
1,"Victim","group",155,1.3,"unfair",2,1,1.58048430000008,"Two",0,1
1,"Victim","group",156,1.2,"unfair",2,1,1.08319998800016,"Two",0,1
1,"Victim","alone",157,3.8,"fair",NA,1,3.99695373300028,"Alone",NA,-1
1,"Victim","group",158,0.800000000000001,"unfair",3,1,1.36377985100034,"Three",1,1
1,"Victim","alone",159,2.9,"amb",NA,1,0.993114168000375,"Alone",NA,0
1,"Victim","group",160,4.7,"fair",4,1,0.755467911999858,"Four",3,-1
1,"Victim","group",161,0.800000000000001,"unfair",3,1,1.14800662100015,"Three",1,1
1,"Victim","group",162,4.7,"fair",4,1,0.776401631999761,"Four",3,-1
1,"Victim","group",163,2.1,"amb",4,1,1.21790792499996,"Four",3,0
1,"Victim","group",164,3,"amb",4,1,0.969032979000076,"Four",3,0
1,"Victim","group",165,0.699999999999999,"unfair",2,1,1.73131396200006,"Two",0,1
1,"Victim","group",166,0.199999999999999,"unfair",2,1,1.35846848700021,"Two",0,1
1,"Victim","group",167,2.5,"amb",4,1,2.19253798099999,"Four",3,0
1,"Victim","group",168,2.9,"amb",4,1,1.11847148800007,"Four",3,0
1,"Victim","group",170,4.4,"fair",4,0,4.69654326099999,"Four",3,-1
1,"Victim","group",171,2.5,"amb",4,1,1.34009518899984,"Four",3,0
1,"Victim","group",172,2.8,"amb",1,1,1.5758439719998,"One",-1,0
1,"Victim","group",173,0.5,"unfair",2,1,1.366911179,"Two",0,1
1,"Victim","group",174,2.6,"amb",2,1,2.99654168000006,"Two",0,0
1,"Victim","group",175,4.3,"fair",3,1,0.812758316000327,"Three",1,-1
1,"Victim","group",176,2.8,"amb",4,1,0.818597922000208,"Four",3,0
1,"Victim","group",177,0.9,"unfair",2,1,1.05592788199965,"Two",0,1
1,"Victim","group",178,0.0999999999999996,"unfair",0,0,3.53024625599983,"Zero",-3,1
1,"Victim","group",179,0.5,"unfair",0,0,0.961121802999969,"Zero",-3,1
1,"Victim","group",180,0.5,"unfair",4,1,1.02328207599976,"Four",3,1
1,"Victim","group",181,0.800000000000001,"unfair",3,1,2.7935966099999,"Three",1,1
1,"Victim","group",182,4.9,"fair",4,1,2.72452094800019,"Four",3,-1
1,"Victim","alone",183,1.2,"unfair",NA,1,1.3229841299999,"Alone",NA,1
1,"Victim","group",184,2.8,"amb",1,0,1.14843313400024,"One",-1,0
1,"Victim","group",185,3.8,"fair",2,1,2.88586979199999,"Two",0,-1
1,"Victim","alone",186,2.7,"amb",NA,1,0.744279060999816,"Alone",NA,0
1,"Victim","group",187,2.6,"amb",3,1,0.704435812000156,"Three",1,0
1,"Victim","group",188,4.8,"fair",0,0,1.28852239300022,"Zero",-3,-1
1,"Victim","group",189,1,"unfair",1,1,1.75967143100024,"One",-1,1
1,"Victim","group",190,2.4,"amb",4,1,0.974042111000017,"Four",3,0
1,"Victim","group",192,2.8,"amb",3,1,1.52622467599986,"Three",1,0
1,"Victim","alone",193,4.1,"fair",NA,1,4.02539320400001,"Alone",NA,-1
1,"Victim","group",194,3.8,"fair",2,1,0.982532597000045,"Two",0,-1
1,"Victim","group",195,0.5,"unfair",0,0,3.29773643199997,"Zero",-3,1
1,"Victim","alone",196,4.7,"fair",NA,0,3.77317103999985,"Alone",NA,-1
1,"Victim","group",197,0.4,"unfair",0,0,2.48310156700018,"Zero",-3,1
1,"Victim","group",198,2,"amb",1,1,1.10651368800018,"One",-1,0
1,"Victim","group",199,3.8,"fair",4,1,0.65779178799994,"Four",3,-1
1,"Victim","group",200,2.3,"amb",1,1,4.10262938200003,"One",-1,0
1,"Victim","group",201,2.1,"amb",1,1,2.0229453879997,"One",-1,0
1,"Victim","group",202,3,"amb",2,1,1.07211601600011,"Two",0,0
1,"Victim","alone",203,2.6,"amb",NA,1,0.784613946000263,"Alone",NA,0
1,"Victim","group",204,0.199999999999999,"unfair",1,1,1.71643527700007,"One",-1,1
1,"Victim","group",205,2.5,"amb",1,0,2.30009170799985,"One",-1,0
1,"Victim","alone",206,2.2,"amb",NA,1,1.22045693600012,"Alone",NA,0
1,"Victim","alone",207,4.9,"fair",NA,0,1.86639149600023,"Alone",NA,-1
1,"Victim","group",208,1,"unfair",2,1,1.03650961299991,"Two",0,1
1,"Victim","group",209,2.3,"amb",2,1,0.889681131000088,"Two",0,0
1,"Victim","alone",210,2,"amb",NA,1,0.947865396999987,"Alone",NA,0
1,"Victim","group",211,1,"unfair",3,1,0.885543017000145,"Three",1,1
1,"Victim","group",212,4.7,"fair",4,1,0.732426481999937,"Four",3,-1
1,"Victim","group",213,0.800000000000001,"unfair",3,1,1.24646715600011,"Three",1,1
1,"Victim","group",214,0.800000000000001,"unfair",1,1,1.79794644899994,"One",-1,1
1,"Victim","group",215,0.0999999999999996,"unfair",3,1,2.27868191599964,"Three",1,1
1,"Victim","group",216,3.9,"fair",0,0,1.9765122419999,"Zero",-3,-1
1,"Victim","group",217,2.3,"amb",0,1,1.25810751900008,"Zero",-3,0
1,"Victim","group",218,4.8,"fair",3,1,0.817848008000055,"Three",1,-1
1,"Victim","group",219,0.9,"unfair",4,1,0.942541841000093,"Four",3,1
1,"Victim","group",220,0.300000000000001,"unfair",2,1,1.78355449300034,"Two",0,1
1,"Victim","alone",221,2.2,"amb",NA,1,1.83690713400028,"Alone",NA,0
1,"Victim","group",222,0.6,"unfair",3,1,1.09028089799995,"Three",1,1
1,"Victim","group",223,0.800000000000001,"unfair",4,1,0.673259619000419,"Four",3,1
1,"Victim","group",224,1,"unfair",1,1,2.90112455400003,"One",-1,1
1,"Victim","alone",225,2.7,"amb",NA,1,3.18301257900021,"Alone",NA,0
1,"Victim","group",226,0.9,"unfair",0,0,1.04578956900014,"Zero",-3,1
1,"Victim","group",227,1.1,"unfair",3,1,1.09359047699991,"Three",1,1
1,"Victim","alone",228,1,"unfair",NA,1,0.875658296999973,"Alone",NA,1
1,"Victim","group",229,2.6,"amb",4,1,0.640577379999741,"Four",3,0
1,"Victim","alone",230,4.8,"fair",NA,0,2.43696121799985,"Alone",NA,-1
1,"Victim","alone",231,4.4,"fair",NA,0,3.15709345999994,"Alone",NA,-1
1,"Victim","group",232,4,"fair",4,1,1.0539644710002,"Four",3,-1
1,"Victim","group",233,3.8,"fair",3,1,0.988903032000053,"Three",1,-1
1,"Victim","group",234,0.6,"unfair",2,1,1.26449812200008,"Two",0,1
1,"Victim","group",235,0.300000000000001,"unfair",3,1,0.582589133000056,"Three",1,1
1,"Victim","group",236,3,"amb",0,0,1.70157130699999,"Zero",-3,0
1,"Victim","group",238,0.6,"unfair",0,1,3.30847112999982,"Zero",-3,1
1,"Victim","group",239,2.6,"amb",1,1,2.5777536810001,"One",-1,0
1,"Victim","group",240,4.6,"fair",1,0,1.3732922449999,"One",-1,-1
1,"Victim","group",241,2.1,"amb",4,1,0.810573565000141,"Four",3,0
1,"Victim","group",242,4.1,"fair",3,1,4.28048300899991,"Three",1,-1
1,"Victim","group",243,4,"fair",2,1,1.10122369400005,"Two",0,-1
1,"Victim","group",245,2,"amb",1,1,1.31304790500008,"One",-1,0
1,"Victim","group",246,1.2,"unfair",0,0,1.49180618299988,"Zero",-3,1
1,"Victim","group",247,4.2,"fair",1,0,4.00146642500022,"One",-1,-1
1,"Victim","group",248,4.8,"fair",1,0,1.98414185999991,"One",-1,-1
1,"Victim","group",249,4.1,"fair",2,1,4.66514062399983,"Two",0,-1
1,"Victim","group",250,4.3,"fair",0,0,1.97069431,"Zero",-3,-1
1,"Victim","group",251,4.2,"fair",1,0,1.7823056469997,"One",-1,-1
1,"Victim","group",253,3.1,"amb",3,1,1.72540697799968,"Three",1,0
1,"Victim","group",254,4.2,"fair",2,1,1.37167953700009,"Two",0,-1
1,"Victim","alone",255,0.9,"unfair",NA,1,1.26734938100026,"Alone",NA,1
1,"Victim","group",256,1,"unfair",3,1,0.942818455000179,"Three",1,1
1,"Victim","group",257,2.4,"amb",3,1,1.36499084100024,"Three",1,0
1,"Victim","group",258,3.1,"amb",0,0,1.27430610700003,"Zero",-3,0
1,"Victim","group",259,4.3,"fair",2,0,1.68384628900003,"Two",0,-1
1,"Victim","group",260,0.5,"unfair",3,1,0.827759162999882,"Three",1,1
1,"Victim","group",261,1.1,"unfair",1,1,0.663900784999896,"One",-1,1
1,"Victim","group",262,1.3,"unfair",0,1,1.68029501300043,"Zero",-3,1
1,"Victim","group",263,1.9,"amb",0,1,3.56371724000019,"Zero",-3,0
1,"Victim","group",264,4.4,"fair",0,0,2.13444597900025,"Zero",-3,-1
1,"Victim","group",265,4.1,"fair",3,1,1.46229586500021,"Three",1,-1
1,"Victim","group",266,4.2,"fair",0,0,1.44241628400005,"Zero",-3,-1
1,"Victim","group",267,2.5,"amb",1,1,1.41992819100005,"One",-1,0
1,"Victim","group",268,0.6,"unfair",2,1,1.59349583099993,"Two",0,1
1,"Victim","group",269,2,"amb",0,1,3.49504765600022,"Zero",-3,0
1,"Victim","group",271,4.8,"fair",0,0,1.20764659000042,"Zero",-3,-1
1,"Victim","group",272,0.699999999999999,"unfair",0,1,1.34199954999985,"Zero",-3,1
1,"Victim","group",273,2.7,"amb",1,0,3.07928882000033,"One",-1,0
1,"Victim","group",274,0.699999999999999,"unfair",1,1,1.40976909300025,"One",-1,1
1,"Victim","group",275,0.5,"unfair",1,1,2.68114101800029,"One",-1,1
1,"Victim","group",276,4.4,"fair",0,0,0.948696387999917,"Zero",-3,-1
1,"Victim","group",277,4.1,"fair",1,0,1.84322366199967,"One",-1,-1
1,"Victim","group",278,2.6,"amb",4,1,2.88594681399991,"Four",3,0
1,"Victim","group",279,4.3,"fair",1,0,2.88629693499979,"One",-1,-1
1,"Victim","group",280,4.8,"fair",1,0,1.73990592200016,"One",-1,-1
1,"Victim","group",281,4.7,"fair",3,1,1.33225264400016,"Three",1,-1
1,"Victim","group",282,4.2,"fair",3,0,2.18332486400004,"Three",1,-1
1,"Victim","group",283,3.9,"fair",1,1,1.801840352,"One",-1,-1
1,"Victim","group",284,4.8,"fair",4,1,2.08980394100035,"Four",3,-1
1,"Victim","group",285,2.5,"amb",4,1,1.12978324999995,"Four",3,0
1,"Victim","group",286,4.6,"fair",1,0,2.49924060900003,"One",-1,-1
1,"Victim","alone",287,3.9,"fair",NA,1,0.970456403999833,"Alone",NA,-1
1,"Victim","alone",288,0.5,"unfair",NA,1,0.9377156380001,"Alone",NA,1
1,"Victim","group",289,2,"amb",1,1,1.57833008900025,"One",-1,0
1,"Victim","group",290,1,"unfair",0,1,2.56252443099993,"Zero",-3,1
1,"Victim","group",291,2.5,"amb",4,1,1.14574376600012,"Four",3,0
1,"Victim","group",292,1.9,"amb",4,1,1.31851882799992,"Four",3,0
1,"Victim","group",293,0.5,"unfair",3,1,0.750433824000083,"Three",1,1
1,"Victim","group",294,2.3,"amb",1,0,4.70956962000037,"One",-1,0
1,"Victim","group",295,1,"unfair",3,1,1.759725635,"Three",1,1
1,"Victim","group",296,4,"fair",0,0,3.26314502800005,"Zero",-3,-1
1,"Victim","group",297,4,"fair",3,1,1.30110864400012,"Three",1,-1
1,"Victim","group",298,0.199999999999999,"unfair",4,1,1.76320734599994,"Four",3,1
1,"Victim","group",299,3.9,"fair",0,1,2.28982708699959,"Zero",-3,-1
1,"Victim","group",300,0.6,"unfair",4,1,0.987288912000167,"Four",3,1
1,"Victim","group",301,4.5,"fair",0,0,3.39565643900005,"Zero",-3,-1
1,"Victim","group",302,4.8,"fair",1,0,1.91906891999997,"One",-1,-1
1,"Victim","group",303,2.2,"amb",0,1,2.02779837699973,"Zero",-3,0
1,"Victim","group",304,0.9,"unfair",2,1,1.8265203169999,"Two",0,1
1,"Victim","group",305,4.3,"fair",3,1,1.584487868,"Three",1,-1
1,"Victim","group",306,3.7,"fair",2,1,1.10717829799978,"Two",0,-1
1,"Victim","group",307,2.9,"amb",0,0,4.79143334599985,"Zero",-3,0
1,"Victim","group",308,2.1,"amb",4,1,0.733156159999908,"Four",3,0
1,"Victim","group",309,4.8,"fair",2,1,1.37063301800026,"Two",0,-1
1,"Victim","group",310,0.699999999999999,"unfair",4,1,1.12182427500011,"Four",3,1
1,"Victim","group",311,2,"amb",2,1,3.23347485400018,"Two",0,0
1,"Victim","group",312,0.300000000000001,"unfair",4,1,1.23986573999991,"Four",3,1
1,"Victim","group",313,1,"unfair",3,1,0.597113296999851,"Three",1,1
1,"Victim","group",314,4.7,"fair",1,0,1.95695086099977,"One",-1,-1
1,"Victim","group",315,4.5,"fair",1,0,4.02971952500002,"One",-1,-1
1,"Victim","group",316,0.4,"unfair",1,1,1.47073375700029,"One",-1,1
1,"Victim","group",317,4.6,"fair",3,1,3.39127937500007,"Three",1,-1
1,"Victim","group",318,2.7,"amb",3,1,0.931833248000203,"Three",1,0
1,"Victim","alone",319,0.4,"unfair",NA,1,0.899193839999953,"Alone",NA,1
1,"Victim","group",320,1,"unfair",0,0,3.68918614999984,"Zero",-3,1
1,"Victim","group",321,2.8,"amb",3,1,2.24096790899966,"Three",1,0
1,"Victim","group",322,4.7,"fair",4,1,3.79836972099974,"Four",3,-1
1,"Victim","group",323,0.800000000000001,"unfair",3,1,0.887715303000277,"Three",1,1
1,"Victim","group",324,0.9,"unfair",4,1,1.090620038,"Four",3,1
1,"Victim","alone",325,4.6,"fair",NA,0,1.86053559199991,"Alone",NA,-1
1,"Victim","group",326,2.4,"amb",0,0,1.56132637900009,"Zero",-3,0
1,"Victim","group",327,1,"unfair",0,0,1.24547463099998,"Zero",-3,1
1,"Victim","group",328,3,"amb",3,1,0.606425958999807,"Three",1,0
1,"Victim","group",329,1,"unfair",1,0,1.18309028600015,"One",-1,1
1,"Victim","alone",330,4.1,"fair",NA,0,2.23141278000003,"Alone",NA,-1
1,"Victim","group",331,2.8,"amb",0,1,1.14319117200012,"Zero",-3,0
1,"Victim","group",332,0.699999999999999,"unfair",1,1,1.471836446,"One",-1,1
1,"Victim","group",333,4.6,"fair",1,0,1.4790946449998,"One",-1,-1
1,"Victim","group",334,0.9,"unfair",2,1,0.958326677000059,"Two",0,1
1,"Victim","group",335,4.7,"fair",3,1,0.633744940999804,"Three",1,-1
1,"Victim","group",336,1.2,"unfair",4,1,0.538199181999971,"Four",3,1
1,"Victim","group",337,0.9,"unfair",4,1,2.6890161260003,"Four",3,1
1,"Victim","alone",338,4.8,"fair",NA,0,1.92668455500007,"Alone",NA,-1
1,"Victim","group",339,0.0999999999999996,"unfair",0,1,1.39225248100001,"Zero",-3,1
1,"Victim","group",340,2.5,"amb",2,1,2.37773888999982,"Two",0,0
1,"Victim","group",341,2,"amb",2,1,0.961003162999987,"Two",0,0
1,"Victim","group",342,2.1,"amb",2,1,1.94755108199979,"Two",0,0
1,"Victim","group",343,0.6,"unfair",4,1,1.03515911999966,"Four",3,1
1,"Victim","group",344,3.9,"fair",4,1,2.05453193500034,"Four",3,-1
1,"Victim","group",345,2,"amb",1,1,1.78966323299983,"One",-1,0
1,"Victim","group",346,4.6,"fair",2,1,0.668313893000231,"Two",0,-1
1,"Victim","group",347,2.9,"amb",4,1,0.857017454000015,"Four",3,0
1,"Victim","group",348,2.2,"amb",2,1,0.840820756999619,"Two",0,0
1,"Victim","group",349,2.8,"amb",3,1,0.883338089000063,"Three",1,0
1,"Victim","alone",350,4.1,"fair",NA,0,2.72712899500038,"Alone",NA,-1
1,"Victim","group",351,4.4,"fair",0,0,2.06581695299974,"Zero",-3,-1
1,"Victim","group",352,3.9,"fair",0,1,4.10053033899976,"Zero",-3,-1
1,"Victim","group",353,2.9,"amb",0,1,0.961030019000191,"Zero",-3,0
1,"Victim","group",354,0.4,"unfair",1,1,1.34915073599996,"One",-1,1
1,"Victim","group",355,2.5,"amb",2,1,1.64368219499966,"Two",0,0
1,"Victim","group",356,1.3,"unfair",2,1,0.925066266000158,"Two",0,1
1,"Victim","group",357,0.699999999999999,"unfair",2,1,0.973369707000074,"Two",0,1
1,"Victim","group",358,2.9,"amb",2,1,0.876470581999911,"Two",0,0
1,"Victim","group",359,2.4,"amb",0,0,1.44828573999985,"Zero",-3,0
1,"Victim","group",360,4.1,"fair",1,0,1.96508902100004,"One",-1,-1
1,"Victim","group",361,3.1,"amb",3,1,2.58151672399981,"Three",1,0
1,"Victim","alone",362,4,"fair",NA,1,1.81237842700011,"Alone",NA,-1
1,"Victim","alone",363,2.5,"amb",NA,1,1.81248431799986,"Alone",NA,0
1,"Victim","group",364,0.0999999999999996,"unfair",2,1,3.67753904399979,"Two",0,1
1,"Victim","group",365,0.199999999999999,"unfair",3,1,0.988435151999965,"Three",1,1
1,"Victim","group",366,1.1,"unfair",0,0,3.73511935599981,"Zero",-3,1
1,"Victim","group",367,2,"amb",4,1,2.6591372769999,"Four",3,0
1,"Victim","group",368,1.3,"unfair",4,1,0.604677384999832,"Four",3,1
1,"Victim","group",369,2.1,"amb",2,1,0.801093686999593,"Two",0,0
1,"Victim","alone",370,0.6,"unfair",NA,1,1.48918209200019,"Alone",NA,1
1,"Victim","group",371,0.6,"unfair",1,1,2.17340477100015,"One",-1,1
1,"Victim","group",372,4.5,"fair",0,0,1.38863839199985,"Zero",-3,-1
2,"Victim","group",31,4.2,"fair",3,1,0.918592219000857,"Three",1,-1
2,"Victim","group",32,0.199999999999999,"unfair",1,0,0.983582454999123,"One",-1,1
2,"Victim","group",33,2.3,"amb",1,0,0.782881085000554,"One",-1,0
2,"Victim","group",34,2.4,"amb",0,0,1.22901628100044,"Zero",-3,0
2,"Victim","group",35,3.8,"fair",4,1,0.845057844999246,"Four",3,-1
2,"Victim","alone",36,2.4,"amb",NA,1,1.49108819100002,"Alone",NA,0
2,"Victim","group",37,1.3,"unfair",1,0,1.16052538300028,"One",-1,1
2,"Victim","group",38,4.7,"fair",3,1,0.57427595900117,"Three",1,-1
2,"Victim","group",39,4.2,"fair",1,0,0.737835736001216,"One",-1,-1
2,"Victim","group",40,4.3,"fair",2,0,2.06500674000017,"Two",0,-1
2,"Victim","group",41,0.5,"unfair",4,1,2.76845911199962,"Four",3,1
2,"Victim","group",42,0.6,"unfair",4,1,0.829853458000798,"Four",3,1
2,"Victim","group",43,4.5,"fair",2,0,1.74637811100001,"Two",0,-1
2,"Victim","alone",44,4.1,"fair",NA,0,1.86688983699969,"Alone",NA,-1
2,"Victim","group",45,2.1,"amb",2,1,2.20398411000133,"Two",0,0
2,"Victim","group",46,2.6,"amb",2,1,1.15121873099997,"Two",0,0
2,"Victim","group",47,4.7,"fair",0,0,2.07515923799838,"Zero",-3,-1
2,"Victim","group",48,3.1,"amb",0,0,0.644068924000749,"Zero",-3,0
2,"Victim","group",49,4.4,"fair",2,0,1.29860680300044,"Two",0,-1
2,"Victim","group",50,2.8,"amb",3,1,0.656210175000524,"Three",1,0
2,"Victim","group",51,4.3,"fair",4,1,0.70368768499975,"Four",3,-1
2,"Victim","group",52,4,"fair",4,1,0.735707256999376,"Four",3,-1
2,"Victim","group",53,2.4,"amb",2,1,1.25752787800047,"Two",0,0
2,"Victim","group",54,0.300000000000001,"unfair",4,1,1.01857696299885,"Four",3,1
2,"Victim","group",55,2.9,"amb",3,1,1.22187803599991,"Three",1,0
2,"Victim","group",56,3,"amb",0,0,2.57316373900176,"Zero",-3,0
2,"Victim","group",57,3.8,"fair",1,0,0.736019322999709,"One",-1,-1
2,"Victim","group",58,2.6,"amb",1,0,0.580115654998735,"One",-1,0
2,"Victim","group",59,2.2,"amb",1,0,0.479807618999985,"One",-1,0
2,"Victim","group",60,1.1,"unfair",4,1,0.610354211001322,"Four",3,1
2,"Victim","group",61,0.300000000000001,"unfair",3,1,0.589646165999511,"Three",1,1
2,"Victim","group",62,2.4,"amb",2,1,1.14231372299946,"Two",0,0
2,"Victim","group",63,3.7,"fair",1,0,1.02312499900108,"One",-1,-1
2,"Victim","group",64,3.8,"fair",4,1,0.749852732998988,"Four",3,-1
2,"Victim","group",65,3,"amb",0,0,1.99373630099944,"Zero",-3,0
2,"Victim","group",66,2.2,"amb",3,1,0.799593511001149,"Three",1,0
2,"Victim","group",67,2.5,"amb",2,1,1.08762904499963,"Two",0,0
2,"Victim","group",68,2.5,"amb",1,0,0.842839019998792,"One",-1,0
2,"Victim","group",69,4.4,"fair",1,0,0.621747751998555,"One",-1,-1
2,"Victim","group",70,1.1,"unfair",2,1,1.01512197800002,"Two",0,1
2,"Victim","group",71,0.199999999999999,"unfair",0,0,0.680065725999157,"Zero",-3,1
2,"Victim","group",73,0.4,"unfair",2,1,1.23776311399888,"Two",0,1
2,"Victim","group",74,0.800000000000001,"unfair",0,0,0.685028154000975,"Zero",-3,1
2,"Victim","group",75,2.7,"amb",4,1,0.510474398999577,"Four",3,0
2,"Victim","group",76,3,"amb",3,1,0.549745586999052,"Three",1,0
2,"Victim","group",77,2.7,"amb",1,0,0.523878447000243,"One",-1,0
2,"Victim","group",78,2.8,"amb",1,0,0.568467586999759,"One",-1,0
2,"Victim","group",79,2.2,"amb",3,1,0.526290972000425,"Three",1,0
2,"Victim","group",80,1.1,"unfair",4,1,0.600681572999747,"Four",3,1
2,"Victim","group",81,4.9,"fair",2,0,1.42317179800011,"Two",0,-1
2,"Victim","group",82,1.1,"unfair",3,1,0.680508800000098,"Three",1,1
2,"Victim","group",83,0.800000000000001,"unfair",1,0,0.729850364999947,"One",-1,1
2,"Victim","group",84,2.4,"amb",1,0,0.58048643300026,"One",-1,0
2,"Victim","group",85,0.5,"unfair",0,0,0.512251744999958,"Zero",-3,1
2,"Victim","group",86,2.1,"amb",3,1,0.675944532000358,"Three",1,0
2,"Victim","group",87,4,"fair",2,0,1.23928149200037,"Two",0,-1
2,"Victim","group",88,1.3,"unfair",0,0,0.597905777000051,"Zero",-3,1
2,"Victim","group",89,2.4,"amb",4,1,1.21384678399954,"Four",3,0
2,"Victim","group",90,4.8,"fair",4,1,0.563996323999163,"Four",3,-1
2,"Victim","group",91,4.6,"fair",0,0,3.84738576600103,"Zero",-3,-1
2,"Victim","group",92,4.9,"fair",3,1,1.07869513100013,"Three",1,-1
2,"Victim","group",93,4.4,"fair",0,0,1.07767657300064,"Zero",-3,-1
2,"Victim","group",94,0.199999999999999,"unfair",0,0,1.8398911610002,"Zero",-3,1
2,"Victim","group",95,0.6,"unfair",3,1,0.574585682999896,"Three",1,1
2,"Victim","group",96,1.1,"unfair",3,1,0.457103990000178,"Three",1,1
2,"Victim","group",97,2.2,"amb",4,1,0.504546545000267,"Four",3,0
2,"Victim","group",98,1.2,"unfair",4,1,0.548573902000498,"Four",3,1
2,"Victim","group",99,2.4,"amb",1,0,0.586339112000132,"One",-1,0
2,"Victim","group",100,3.9,"fair",0,0,0.519683914999405,"Zero",-3,-1
2,"Victim","group",101,2.9,"amb",3,1,0.529823687000317,"Three",1,0
2,"Victim","group",102,1.1,"unfair",4,1,0.460242481998648,"Four",3,1
2,"Victim","group",103,3.9,"fair",3,1,0.432464242001515,"Three",1,-1
2,"Victim","group",104,1.2,"unfair",1,0,0.650492103000943,"One",-1,1
2,"Victim","group",105,4,"fair",3,1,0.862075189999814,"Three",1,-1
2,"Victim","group",106,4.7,"fair",0,0,0.536959025999749,"Zero",-3,-1
2,"Victim","group",107,4,"fair",3,1,0.553772076000314,"Three",1,-1
2,"Victim","alone",108,4.9,"fair",NA,0,1.23789488799957,"Alone",NA,-1
2,"Victim","group",109,2.6,"amb",1,0,0.539787503001207,"One",-1,0
2,"Victim","group",110,0.6,"unfair",0,0,0.660368026001379,"Zero",-3,1
2,"Victim","group",111,0.699999999999999,"unfair",0,0,0.63967102100105,"Zero",-3,1
2,"Victim","alone",112,0.699999999999999,"unfair",NA,1,1.47605309800019,"Alone",NA,1
2,"Victim","group",113,0.5,"unfair",2,1,1.24139749599999,"Two",0,1
2,"Victim","group",114,1,"unfair",0,0,0.645487660000072,"Zero",-3,1
2,"Victim","group",115,1.2,"unfair",3,1,0.587922040000194,"Three",1,1
2,"Victim","group",116,3.9,"fair",4,1,0.7724357219995,"Four",3,-1
2,"Victim","alone",117,0.199999999999999,"unfair",NA,1,0.755249042998912,"Alone",NA,1
2,"Victim","group",118,0.6,"unfair",2,1,1.08638047099885,"Two",0,1
2,"Victim","group",119,0.800000000000001,"unfair",1,0,4.44268126299903,"One",-1,1
2,"Victim","group",120,0.199999999999999,"unfair",4,1,0.50447317599901,"Four",3,1
2,"Victim","group",121,2.9,"amb",0,0,0.707822746999227,"Zero",-3,0
2,"Victim","group",122,4.3,"fair",0,0,0.528344061000098,"Zero",-3,-1
2,"Victim","group",123,4.2,"fair",3,1,0.463954230999661,"Three",1,-1
2,"Victim","group",124,2,"amb",0,0,0.539724201000354,"Zero",-3,0
2,"Victim","group",125,2.7,"amb",0,0,0.489825944998302,"Zero",-3,0
2,"Victim","group",126,0.5,"unfair",1,0,0.509000504998767,"One",-1,1
2,"Victim","group",127,1.1,"unfair",2,1,1.19081896200078,"Two",0,1
2,"Victim","group",128,3.9,"fair",1,0,0.580497293998633,"One",-1,-1
2,"Victim","group",129,4.4,"fair",1,0,1.375021449001,"One",-1,-1
2,"Victim","group",130,4.3,"fair",2,0,1.39913845400042,"Two",0,-1
2,"Victim","group",131,0.699999999999999,"unfair",3,1,0.868232673999955,"Three",1,1
2,"Victim","group",132,2.4,"amb",2,1,1.2300331990009,"Two",0,0
2,"Victim","alone",133,2.3,"amb",NA,1,0.898064355000315,"Alone",NA,0
2,"Victim","alone",134,0.5,"unfair",NA,1,1.65349230199899,"Alone",NA,1
2,"Victim","group",135,4.5,"fair",4,1,0.565047275000325,"Four",3,-1
2,"Victim","group",136,2.3,"amb",0,0,0.833921301000373,"Zero",-3,0
2,"Victim","group",137,4.4,"fair",4,1,0.649855170999217,"Four",3,-1
2,"Victim","group",138,2.1,"amb",2,1,0.945999587998813,"Two",0,0
2,"Victim","group",139,3.9,"fair",0,0,0.578514266999264,"Zero",-3,-1
2,"Victim","group",140,2.7,"amb",1,0,1.43833227200048,"One",-1,0
2,"Victim","group",141,4.2,"fair",4,1,0.482054973999766,"Four",3,-1
2,"Victim","group",142,0.800000000000001,"unfair",2,1,1.02105950399891,"Two",0,1
2,"Victim","group",143,1.1,"unfair",1,0,1.55326991400034,"One",-1,1
2,"Victim","group",144,2,"amb",4,1,0.716684347999035,"Four",3,0
2,"Victim","alone",145,2.6,"amb",NA,1,0.968076193999877,"Alone",NA,0
2,"Victim","group",146,0.5,"unfair",1,0,0.851783023999815,"One",-1,1
2,"Victim","group",147,3.7,"fair",0,0,0.675867674999608,"Zero",-3,-1
2,"Victim","group",148,2.3,"amb",3,1,0.565108277000036,"Three",1,0
2,"Victim","group",149,1.9,"amb",1,0,0.654961837000883,"One",-1,0
2,"Victim","group",150,0.5,"unfair",0,0,0.54580871699909,"Zero",-3,1
2,"Victim","group",151,0.699999999999999,"unfair",3,1,0.561353024999335,"Three",1,1
2,"Victim","group",152,3,"amb",2,1,0.89554915899862,"Two",0,0
2,"Victim","alone",153,4,"fair",NA,0,2.53519430800043,"Alone",NA,-1
2,"Victim","group",154,3.9,"fair",2,0,1.28431758400075,"Two",0,-1
2,"Victim","group",155,1.3,"unfair",2,1,2.30716811599996,"Two",0,1
2,"Victim","group",156,1.2,"unfair",2,1,1.30648560500049,"Two",0,1
2,"Victim","alone",157,3.8,"fair",NA,0,1.13116685099885,"Alone",NA,-1
2,"Victim","group",158,0.800000000000001,"unfair",3,1,1.13793771100063,"Three",1,1
2,"Victim","alone",159,2.9,"amb",NA,1,1.14568904599946,"Alone",NA,0
2,"Victim","group",160,4.7,"fair",4,1,1.79194325099888,"Four",3,-1
2,"Victim","group",161,0.800000000000001,"unfair",3,1,0.655635789998996,"Three",1,1
2,"Victim","group",162,4.7,"fair",4,1,3.08906636500069,"Four",3,-1
2,"Victim","group",163,2.1,"amb",4,1,0.784305031000258,"Four",3,0
2,"Victim","group",164,3,"amb",4,1,0.458572699000797,"Four",3,0
2,"Victim","group",165,0.699999999999999,"unfair",2,1,0.850374079998801,"Two",0,1
2,"Victim","group",166,0.199999999999999,"unfair",2,1,1.44300831799956,"Two",0,1
2,"Victim","group",167,2.5,"amb",4,1,1.29315498300093,"Four",3,0
2,"Victim","group",168,2.9,"amb",4,1,0.903303406999839,"Four",3,0
2,"Victim","group",169,0.5,"unfair",2,1,0.997694403000423,"Two",0,1
2,"Victim","group",170,4.4,"fair",4,1,0.539862476000053,"Four",3,-1
2,"Victim","group",171,2.5,"amb",4,1,0.625022263999199,"Four",3,0
2,"Victim","group",172,2.8,"amb",1,0,0.665159086000131,"One",-1,0
2,"Victim","group",173,0.5,"unfair",2,1,0.878379296000276,"Two",0,1
2,"Victim","group",174,2.6,"amb",2,1,1.15159768299964,"Two",0,0
2,"Victim","group",177,0.9,"unfair",2,1,1.12981229300021,"Two",0,1
2,"Victim","group",178,0.0999999999999996,"unfair",0,0,1.579667693999,"Zero",-3,1
2,"Victim","group",179,0.5,"unfair",0,0,2.66082013499908,"Zero",-3,1
2,"Victim","group",180,0.5,"unfair",4,1,0.520392160000483,"Four",3,1
2,"Victim","group",181,0.800000000000001,"unfair",3,1,0.696568793999177,"Three",1,1
2,"Victim","group",182,4.9,"fair",4,1,0.754071330999068,"Four",3,-1
2,"Victim","alone",183,1.2,"unfair",NA,1,2.00894294299906,"Alone",NA,1
2,"Victim","alone",186,2.7,"amb",NA,1,2.63985043000139,"Alone",NA,0
2,"Victim","group",187,2.6,"amb",3,1,0.566044052999132,"Three",1,0
2,"Victim","group",188,4.8,"fair",0,0,0.549986432999503,"Zero",-3,-1
2,"Victim","group",189,1,"unfair",1,0,0.510318045000531,"One",-1,1
2,"Victim","group",190,2.4,"amb",4,1,0.489393703999667,"Four",3,0
2,"Victim","group",191,3,"amb",0,0,0.461925116000202,"Zero",-3,0
2,"Victim","group",192,2.8,"amb",3,1,0.411321450999822,"Three",1,0
2,"Victim","alone",193,4.1,"fair",NA,0,1.18339888400078,"Alone",NA,-1
2,"Victim","group",194,3.8,"fair",2,0,2.42643033099921,"Two",0,-1
2,"Victim","group",195,0.5,"unfair",0,0,0.627604824001537,"Zero",-3,1
2,"Victim","alone",196,4.7,"fair",NA,0,0.872933833999923,"Alone",NA,-1
2,"Victim","group",197,0.4,"unfair",0,0,2.29915333499957,"Zero",-3,1
2,"Victim","group",198,2,"amb",1,0,1.03464370700021,"One",-1,0
2,"Victim","group",199,3.8,"fair",4,1,0.552081572999668,"Four",3,-1
2,"Victim","group",200,2.3,"amb",1,0,0.40442031800012,"One",-1,0
2,"Victim","group",201,2.1,"amb",1,0,0.578921591000835,"One",-1,0
2,"Victim","group",202,3,"amb",2,1,1.29777577599998,"Two",0,0
2,"Victim","alone",203,2.6,"amb",NA,1,1.25259894599913,"Alone",NA,0
2,"Victim","group",204,0.199999999999999,"unfair",1,0,0.646891804999541,"One",-1,1
2,"Victim","group",205,2.5,"amb",1,0,0.5633042820009,"One",-1,0
2,"Victim","alone",206,2.2,"amb",NA,1,1.85654719200102,"Alone",NA,0
2,"Victim","alone",207,4.9,"fair",NA,0,0.911233230999642,"Alone",NA,-1
2,"Victim","group",208,1,"unfair",2,1,1.00105497100049,"Two",0,1
2,"Victim","group",209,2.3,"amb",2,1,0.995264567000049,"Two",0,0
2,"Victim","alone",210,2,"amb",NA,1,0.835872829000436,"Alone",NA,0
2,"Victim","group",211,1,"unfair",3,1,1.0771469249994,"Three",1,1
2,"Victim","group",212,4.7,"fair",4,1,0.559184122999795,"Four",3,-1
2,"Victim","group",213,0.800000000000001,"unfair",3,1,0.596529700000247,"Three",1,1
2,"Victim","group",214,0.800000000000001,"unfair",1,0,0.576160006999999,"One",-1,1
2,"Victim","group",215,0.0999999999999996,"unfair",3,1,0.457879369001603,"Three",1,1
2,"Victim","group",216,3.9,"fair",0,0,0.451631201000055,"Zero",-3,-1
2,"Victim","group",217,2.3,"amb",0,0,0.454838943998766,"Zero",-3,0
2,"Victim","group",218,4.8,"fair",3,1,0.489374635000786,"Three",1,-1
2,"Victim","group",219,0.9,"unfair",4,1,0.604514413998913,"Four",3,1
2,"Victim","group",220,0.300000000000001,"unfair",2,1,0.905163363000611,"Two",0,1
2,"Victim","alone",221,2.2,"amb",NA,1,0.755588829000772,"Alone",NA,0
2,"Victim","group",222,0.6,"unfair",3,1,0.740262063000046,"Three",1,1
2,"Victim","group",223,0.800000000000001,"unfair",4,1,0.773266303998753,"Four",3,1
2,"Victim","group",224,1,"unfair",1,0,1.52787653500127,"One",-1,1
2,"Victim","alone",225,2.7,"amb",NA,1,0.608329171998776,"Alone",NA,0
2,"Victim","group",226,0.9,"unfair",0,0,1.88039121300062,"Zero",-3,1
2,"Victim","group",227,1.1,"unfair",3,1,0.521106774000145,"Three",1,1
2,"Victim","alone",228,1,"unfair",NA,1,0.528285055999731,"Alone",NA,1
2,"Victim","group",229,2.6,"amb",4,1,0.635805410000103,"Four",3,0
2,"Victim","alone",230,4.8,"fair",NA,0,0.834362575000341,"Alone",NA,-1
2,"Victim","alone",231,4.4,"fair",NA,0,1.46177823700054,"Alone",NA,-1
2,"Victim","group",233,3.8,"fair",3,1,0.5359608939998,"Three",1,-1
2,"Victim","group",234,0.6,"unfair",2,1,0.99658740599989,"Two",0,1
2,"Victim","group",235,0.300000000000001,"unfair",3,1,0.694948115000443,"Three",1,1
2,"Victim","group",236,3,"amb",0,0,0.998146582998743,"Zero",-3,0
2,"Victim","group",237,0.4,"unfair",2,1,1.24709061000067,"Two",0,1
2,"Victim","group",238,0.6,"unfair",0,0,2.66539864700098,"Zero",-3,1
2,"Victim","group",239,2.6,"amb",1,0,0.68221429499863,"One",-1,0
2,"Victim","group",240,4.6,"fair",1,0,0.43069846599974,"One",-1,-1
2,"Victim","group",241,2.1,"amb",4,1,0.410494790001394,"Four",3,0
2,"Victim","group",242,4.1,"fair",3,1,0.435139241999423,"Three",1,-1
2,"Victim","group",243,4,"fair",2,0,1.18924180700014,"Two",0,-1
2,"Victim","group",244,2.6,"amb",0,0,0.545144466999773,"Zero",-3,0
2,"Victim","group",245,2,"amb",1,0,0.483108747001097,"One",-1,0
2,"Victim","group",246,1.2,"unfair",0,0,0.560205346000657,"Zero",-3,1
2,"Victim","group",247,4.2,"fair",1,0,0.455367197999294,"One",-1,-1
2,"Victim","group",248,4.8,"fair",1,0,0.481790121999438,"One",-1,-1
2,"Victim","group",249,4.1,"fair",2,0,1.08176513900071,"Two",0,-1
2,"Victim","group",250,4.3,"fair",0,0,0.439885105999565,"Zero",-3,-1
2,"Victim","group",251,4.2,"fair",1,0,0.471288967999499,"One",-1,-1
2,"Victim","group",252,4.1,"fair",2,0,0.963222811999003,"Two",0,-1
2,"Victim","group",253,3.1,"amb",3,1,0.537218511000901,"Three",1,0
2,"Victim","group",254,4.2,"fair",2,0,1.10720135100019,"Two",0,-1
2,"Victim","alone",255,0.9,"unfair",NA,1,1.03105612200125,"Alone",NA,1
2,"Victim","group",256,1,"unfair",3,1,0.67888732100073,"Three",1,1
2,"Victim","group",257,2.4,"amb",3,1,0.451261441001407,"Three",1,0
2,"Victim","group",258,3.1,"amb",0,0,0.480417536999084,"Zero",-3,0
2,"Victim","group",259,4.3,"fair",2,0,1.00543588799883,"Two",0,-1
2,"Victim","group",260,0.5,"unfair",3,1,1.1604717299997,"Three",1,1
2,"Victim","group",261,1.1,"unfair",1,0,0.774329132998901,"One",-1,1
2,"Victim","group",262,1.3,"unfair",0,0,0.566752688000633,"Zero",-3,1
2,"Victim","group",263,1.9,"amb",0,0,0.489907208999284,"Zero",-3,0
2,"Victim","group",264,4.4,"fair",0,0,0.600542400999984,"Zero",-3,-1
2,"Victim","group",265,4.1,"fair",3,1,0.513260436000564,"Three",1,-1
2,"Victim","group",266,4.2,"fair",0,0,0.507135089999792,"Zero",-3,-1
2,"Victim","group",267,2.5,"amb",1,0,0.550500366000051,"One",-1,0
2,"Victim","group",268,0.6,"unfair",2,1,1.08043331499903,"Two",0,1
2,"Victim","group",269,2,"amb",0,0,0.670342245999564,"Zero",-3,0
2,"Victim","group",270,1.9,"amb",2,1,0.979575901999851,"Two",0,0
2,"Victim","group",271,4.8,"fair",0,0,0.594597002000228,"Zero",-3,-1
2,"Victim","group",272,0.699999999999999,"unfair",0,0,0.385563939000349,"Zero",-3,1
2,"Victim","group",273,2.7,"amb",1,0,0.413205777000258,"One",-1,0
2,"Victim","group",274,0.699999999999999,"unfair",1,0,0.537114032000318,"One",-1,1
2,"Victim","group",275,0.5,"unfair",1,0,4.34317708799972,"One",-1,1
2,"Victim","group",276,4.4,"fair",0,0,0.523898154999188,"Zero",-3,-1
2,"Victim","group",277,4.1,"fair",1,0,0.636339377000695,"One",-1,-1
2,"Victim","group",278,2.6,"amb",4,1,0.493081394999535,"Four",3,0
2,"Victim","group",279,4.3,"fair",1,0,0.606126123000649,"One",-1,-1
2,"Victim","group",280,4.8,"fair",1,0,0.650572466000085,"One",-1,-1
2,"Victim","group",281,4.7,"fair",3,1,0.564441218999491,"Three",1,-1
2,"Victim","group",282,4.2,"fair",3,1,0.618054264999955,"Three",1,-1
2,"Victim","group",283,3.9,"fair",1,0,0.793780735999462,"One",-1,-1
2,"Victim","group",284,4.8,"fair",4,1,0.522553841999979,"Four",3,-1
2,"Victim","group",285,2.5,"amb",4,1,0.692170564001572,"Four",3,0
2,"Victim","group",286,4.6,"fair",1,0,0.433767925998836,"One",-1,-1
2,"Victim","alone",287,3.9,"fair",NA,0,1.51893655899948,"Alone",NA,-1
2,"Victim","alone",288,0.5,"unfair",NA,1,0.601788197998758,"Alone",NA,1
2,"Victim","group",289,2,"amb",1,0,0.727922851001495,"One",-1,0
2,"Victim","group",290,1,"unfair",0,0,0.425661107999986,"Zero",-3,1
2,"Victim","group",291,2.5,"amb",4,1,1.09903925400067,"Four",3,0
2,"Victim","group",292,1.9,"amb",4,1,0.715752254000108,"Four",3,0
2,"Victim","group",293,0.5,"unfair",3,1,0.710542397999234,"Three",1,1
2,"Victim","group",294,2.3,"amb",1,0,0.479977191000216,"One",-1,0
2,"Victim","group",295,1,"unfair",3,1,1.25511296100012,"Three",1,1
2,"Victim","group",296,4,"fair",0,0,2.42977324499952,"Zero",-3,-1
2,"Victim","group",297,4,"fair",3,1,0.556915926999864,"Three",1,-1
2,"Victim","group",298,0.199999999999999,"unfair",4,1,0.493964233999577,"Four",3,1
2,"Victim","group",299,3.9,"fair",0,0,0.467590553000264,"Zero",-3,-1
2,"Victim","group",300,0.6,"unfair",4,1,0.415878152000005,"Four",3,1
2,"Victim","group",301,4.5,"fair",0,0,0.499750996001239,"Zero",-3,-1
2,"Victim","group",302,4.8,"fair",1,0,1.11363486899972,"One",-1,-1
2,"Victim","group",303,2.2,"amb",0,0,0.475573996000094,"Zero",-3,0
2,"Victim","group",304,0.9,"unfair",2,1,2.849625113,"Two",0,1
2,"Victim","group",305,4.3,"fair",3,1,0.457516468999529,"Three",1,-1
2,"Victim","group",306,3.7,"fair",2,0,1.0610027670009,"Two",0,-1
2,"Victim","group",307,2.9,"amb",0,0,0.740417277000233,"Zero",-3,0
2,"Victim","group",308,2.1,"amb",4,1,0.610411772999214,"Four",3,0
2,"Victim","group",309,4.8,"fair",2,0,0.848363801000232,"Two",0,-1
2,"Victim","group",310,0.699999999999999,"unfair",4,1,0.539359414999126,"Four",3,1
2,"Victim","group",311,2,"amb",2,1,0.860521032000179,"Two",0,0
2,"Victim","group",312,0.300000000000001,"unfair",4,1,0.539125684999817,"Four",3,1
2,"Victim","group",313,1,"unfair",3,1,0.727084239999385,"Three",1,1
2,"Victim","group",314,4.7,"fair",1,0,0.675701795998975,"One",-1,-1
2,"Victim","group",315,4.5,"fair",1,0,0.586343222999858,"One",-1,-1
2,"Victim","group",316,0.4,"unfair",1,0,0.519208697998693,"One",-1,1
2,"Victim","group",317,4.6,"fair",3,1,0.406452084000193,"Three",1,-1
2,"Victim","group",318,2.7,"amb",3,1,0.480336051999984,"Three",1,0
2,"Victim","alone",319,0.4,"unfair",NA,1,1.02316547100054,"Alone",NA,1
2,"Victim","group",320,1,"unfair",0,0,0.629141766999965,"Zero",-3,1
2,"Victim","group",321,2.8,"amb",3,1,0.571211632999621,"Three",1,0
2,"Victim","group",322,4.7,"fair",4,1,0.687809799999741,"Four",3,-1
2,"Victim","group",323,0.800000000000001,"unfair",3,1,0.794884512999488,"Three",1,1
2,"Victim","group",324,0.9,"unfair",4,1,0.759468618000028,"Four",3,1
2,"Victim","alone",325,4.6,"fair",NA,0,2.58770984799958,"Alone",NA,-1
2,"Victim","group",326,2.4,"amb",0,0,0.447908439000457,"Zero",-3,0
2,"Victim","group",327,1,"unfair",0,0,0.649750366999797,"Zero",-3,1
2,"Victim","group",328,3,"amb",3,1,0.423905573999946,"Three",1,0
2,"Victim","group",329,1,"unfair",1,0,0.557746185000724,"One",-1,1
2,"Victim","alone",330,4.1,"fair",NA,0,1.11458474400024,"Alone",NA,-1
2,"Victim","group",331,2.8,"amb",0,0,0.713563882998642,"Zero",-3,0
2,"Victim","group",332,0.699999999999999,"unfair",1,0,0.644939590998547,"One",-1,1
2,"Victim","group",333,4.6,"fair",1,0,1.25754176200098,"One",-1,-1
2,"Victim","group",334,0.9,"unfair",2,1,0.901502627000809,"Two",0,1
2,"Victim","group",335,4.7,"fair",3,0,1.18766003900055,"Three",1,-1
2,"Victim","group",336,1.2,"unfair",4,1,0.44923009500053,"Four",3,1
2,"Victim","group",337,0.9,"unfair",4,1,0.633577886999774,"Four",3,1
2,"Victim","alone",338,4.8,"fair",NA,0,0.776488896000956,"Alone",NA,-1
2,"Victim","group",339,0.0999999999999996,"unfair",0,0,0.594549295999968,"Zero",-3,1
2,"Victim","group",340,2.5,"amb",2,1,0.971922866998284,"Two",0,0
2,"Victim","group",341,2,"amb",2,1,1.02857914500055,"Two",0,0
2,"Victim","group",342,2.1,"amb",2,1,1.05983414399998,"Two",0,0
2,"Victim","group",343,0.6,"unfair",4,1,0.594472662000044,"Four",3,1
2,"Victim","group",344,3.9,"fair",4,1,0.650609993999751,"Four",3,-1
2,"Victim","group",345,2,"amb",1,0,0.821447383001214,"One",-1,0
2,"Victim","group",346,4.6,"fair",2,0,0.917642816999432,"Two",0,-1
2,"Victim","group",347,2.9,"amb",4,1,0.474881483998615,"Four",3,0
2,"Victim","group",348,2.2,"amb",2,1,0.931106240999725,"Two",0,0
2,"Victim","group",349,2.8,"amb",3,1,0.662703222998971,"Three",1,0
2,"Victim","alone",350,4.1,"fair",NA,0,0.723922889999812,"Alone",NA,-1
2,"Victim","group",351,4.4,"fair",0,0,0.468723416999637,"Zero",-3,-1
2,"Victim","group",352,3.9,"fair",0,0,0.506560722000359,"Zero",-3,-1
2,"Victim","group",353,2.9,"amb",0,0,0.372794672999589,"Zero",-3,0
2,"Victim","group",354,0.4,"unfair",1,0,0.564583397999741,"One",-1,1
2,"Victim","group",355,2.5,"amb",2,1,1.08432054200057,"Two",0,0
2,"Victim","group",356,1.3,"unfair",2,1,0.860397220998493,"Two",0,1
2,"Victim","group",357,0.699999999999999,"unfair",2,1,1.00023552300081,"Two",0,1
2,"Victim","group",358,2.9,"amb",2,1,0.824123332000454,"Two",0,0
2,"Victim","group",359,2.4,"amb",0,0,0.553176095998424,"Zero",-3,0
2,"Victim","group",360,4.1,"fair",1,0,0.584567326000979,"One",-1,-1
2,"Victim","group",361,3.1,"amb",3,1,0.416453212999841,"Three",1,0
2,"Victim","alone",362,4,"fair",NA,0,1.01742080300028,"Alone",NA,-1
2,"Victim","alone",363,2.5,"amb",NA,1,0.825682848000724,"Alone",NA,0
2,"Victim","group",364,0.0999999999999996,"unfair",2,1,1.07174974100053,"Two",0,1
2,"Victim","group",365,0.199999999999999,"unfair",3,1,0.617685867999171,"Three",1,1
2,"Victim","group",366,1.1,"unfair",0,0,0.629027377000966,"Zero",-3,1
2,"Victim","group",367,2,"amb",4,1,0.936400010999932,"Four",3,0
2,"Victim","group",368,1.3,"unfair",4,1,0.556500323000364,"Four",3,1
2,"Victim","group",369,2.1,"amb",2,1,1.10313874100029,"Two",0,0
2,"Victim","alone",370,0.6,"unfair",NA,1,0.709284280999782,"Alone",NA,1
2,"Victim","group",371,0.6,"unfair",1,0,0.442935056998977,"One",-1,1
2,"Victim","group",372,4.5,"fair",0,0,0.444431604999409,"Zero",-3,-1
2,"Victim","alone",373,3,"amb",NA,1,0.588978757999939,"Alone",NA,0
2,"Victim","group",374,2.9,"amb",4,1,0.557780343000559,"Four",3,0
2,"Victim","group",375,0.4,"unfair",1,0,0.612632481001128,"One",-1,1
2,"Victim","group",376,2.8,"amb",3,1,0.536173987000439,"Three",1,0
2,"Victim","group",377,2.2,"amb",4,1,1.63233378999939,"Four",3,0
2,"Victim","group",378,2.1,"amb",3,1,0.975769325001238,"Three",1,0
2,"Victim","group",379,2.1,"amb",2,1,1.11738201299886,"Two",0,0
2,"Victim","group",380,0.6,"unfair",1,0,2.59961031700004,"One",-1,1
2,"Victim","group",381,3.9,"fair",1,0,0.416363840000486,"One",-1,-1
2,"Victim","group",382,3,"amb",0,0,0.659152060001361,"Zero",-3,0
2,"Victim","group",383,3.8,"fair",3,1,0.806585521999295,"Three",1,-1
2,"Victim","alone",384,0.199999999999999,"unfair",NA,1,1.04670287699992,"Alone",NA,1
2,"Victim","group",385,0.699999999999999,"unfair",4,1,0.541623074999734,"Four",3,1
2,"Victim","group",386,2.5,"amb",3,1,0.419261182998525,"Three",1,0
2,"Victim","group",387,2.3,"amb",3,1,0.411079928000618,"Three",1,0
2,"Victim","group",388,3.8,"fair",4,1,0.380549041999984,"Four",3,-1
2,"Victim","alone",389,2.2,"amb",NA,1,1.36999324099997,"Alone",NA,0
2,"Victim","group",390,4.3,"fair",0,0,0.448481409001033,"Zero",-3,-1
2,"Victim","group",391,2.5,"amb",3,1,0.421837248000884,"Three",1,0
2,"Victim","alone",392,2.9,"amb",NA,1,0.906488679000176,"Alone",NA,0
2,"Victim","group",393,1,"unfair",3,1,0.565720911999961,"Three",1,1
2,"Victim","group",394,4.5,"fair",2,0,3.64055636699959,"Two",0,-1
2,"Victim","group",395,2.5,"amb",2,1,0.980287383999894,"Two",0,0
2,"Victim","group",396,1.2,"unfair",4,1,0.525884962000418,"Four",3,1
2,"Victim","alone",397,0.800000000000001,"unfair",NA,1,0.716612103999068,"Alone",NA,1
2,"Victim","group",398,4.6,"fair",4,1,0.717882268998437,"Four",3,-1
2,"Victim","group",399,4.4,"fair",3,1,0.451618279999821,"Three",1,-1
2,"Victim","group",400,4.6,"fair",4,1,0.598999283000012,"Four",3,-1
2,"Victim","group",401,4.6,"fair",0,0,0.478843964001499,"Zero",-3,-1
2,"Victim","group",402,4.6,"fair",2,0,1.67542082700129,"Two",0,-1
2,"Victim","group",403,4.8,"fair",1,0,0.631823087998782,"One",-1,-1
2,"Victim","group",404,4.7,"fair",0,0,0.923222232999251,"Zero",-3,-1
2,"Victim","group",405,4.7,"fair",2,0,1.65352747100042,"Two",0,-1
2,"Victim","alone",406,0.800000000000001,"unfair",NA,1,1.56661252000049,"Alone",NA,1
2,"Victim","group",407,4,"fair",1,0,1.81783481399907,"One",-1,-1
2,"Victim","group",408,4.6,"fair",4,1,1.09583907200067,"Four",3,-1
2,"Victim","group",409,2.5,"amb",4,1,0.525239532000342,"Four",3,0
2,"Victim","group",410,1,"unfair",4,1,0.724772651999956,"Four",3,1
2,"Victim","group",411,3.8,"fair",3,1,1.23677577200033,"Three",1,-1
2,"Victim","group",412,3.7,"fair",1,0,1.22843354799988,"One",-1,-1
2,"Victim","alone",413,0.5,"unfair",NA,1,0.550499218999903,"Alone",NA,1
2,"Victim","alone",414,2.3,"amb",NA,1,1.00654272700012,"Alone",NA,0
2,"Victim","group",415,2.7,"amb",2,1,0.958391785001368,"Two",0,0
2,"Victim","group",416,4.2,"fair",3,1,0.757093370999428,"Three",1,-1
2,"Victim","group",417,1.2,"unfair",3,1,0.756610706001084,"Three",1,1
2,"Victim","group",418,1.1,"unfair",2,1,0.89394554500177,"Two",0,1
2,"Victim","group",419,1.9,"amb",0,0,0.506854564000605,"Zero",-3,0
2,"Victim","group",420,2.8,"amb",1,0,1.29947674600044,"One",-1,0
2,"Victim","group",421,4.5,"fair",3,1,0.552426787000513,"Three",1,-1
2,"Victim","group",422,4.7,"fair",2,0,2.94488951700077,"Two",0,-1
2,"Victim","group",423,2.5,"amb",4,1,0.72060306000094,"Four",3,0
2,"Victim","group",424,2.5,"amb",2,1,0.935649229000774,"Two",0,0
2,"Victim","group",425,2.9,"amb",0,0,0.604570448000231,"Zero",-3,0
2,"Victim","group",426,0.4,"unfair",4,1,0.932108054999844,"Four",3,1
2,"Victim","group",427,4.2,"fair",2,0,1.59514710099938,"Two",0,-1
2,"Victim","group",428,4.1,"fair",2,0,1.47849902500093,"Two",0,-1
2,"Victim","group",429,4.6,"fair",3,0,3.97641937499975,"Three",1,-1
2,"Victim","group",430,0.800000000000001,"unfair",1,0,1.49245861999952,"One",-1,1
2,"Victim","group",431,4.6,"fair",3,1,0.504554622999422,"Three",1,-1
2,"Victim","group",432,0.9,"unfair",1,0,0.585315780999736,"One",-1,1
2,"Victim","group",433,4.5,"fair",2,0,0.943129093999232,"Two",0,-1
2,"Victim","group",434,2,"amb",4,1,0.46033924799849,"Four",3,0
2,"Victim","group",435,4.8,"fair",0,0,0.531751309999891,"Zero",-3,-1
2,"Victim","alone",436,0.199999999999999,"unfair",NA,1,1.78054165200047,"Alone",NA,1
2,"Victim","group",437,0.5,"unfair",1,0,0.483735505000368,"One",-1,1
2,"Victim","group",438,0.4,"unfair",0,0,0.495661485998426,"Zero",-3,1
2,"Victim","group",439,1.1,"unfair",4,1,0.581241772999419,"Four",3,1
2,"Victim","group",440,2.5,"amb",3,1,2.91159055499884,"Three",1,0
2,"Victim","group",441,4.3,"fair",4,1,0.610301855000216,"Four",3,-1
2,"Victim","group",442,0.699999999999999,"unfair",2,1,1.02924353500021,"Two",0,1
2,"Victim","group",443,4.7,"fair",4,1,0.559621287999107,"Four",3,-1
2,"Victim","group",444,0.4,"unfair",0,0,0.615918260999024,"Zero",-3,1
2,"Victim","group",445,2.7,"amb",0,0,0.789846442999988,"Zero",-3,0
2,"Victim","group",446,4.5,"fair",2,0,0.972391852001238,"Two",0,-1
2,"Victim","alone",447,0.0999999999999996,"unfair",NA,1,0.512909649998619,"Alone",NA,1
2,"Victim","group",448,4.6,"fair",1,0,0.725817098998959,"One",-1,-1
2,"Victim","group",449,2.7,"amb",2,1,0.864257904000624,"Two",0,0
2,"Victim","group",450,2.1,"amb",3,1,0.499715273999755,"Three",1,0
3,"Victim","group",31,4.2,"fair",3,1,2.78528807099974,"Three",1,-1
3,"Victim","group",32,0.199999999999999,"unfair",1,0,1.33351895400119,"One",-1,1
3,"Victim","group",33,2.3,"amb",1,0,1.54262379300053,"One",-1,0
3,"Victim","group",34,2.4,"amb",0,0,1.16511994699977,"Zero",-3,0
3,"Victim","group",35,3.8,"fair",4,1,2.6897990030011,"Four",3,-1
3,"Victim","alone",36,2.4,"amb",NA,0,2.83125483600088,"Alone",NA,0
3,"Victim","group",37,1.3,"unfair",1,0,1.07790538599875,"One",-1,1
3,"Victim","group",38,4.7,"fair",3,1,1.436632981,"Three",1,-1
3,"Victim","group",39,4.2,"fair",1,0,3.32322710399967,"One",-1,-1
3,"Victim","group",40,4.3,"fair",2,1,0.985855429000367,"Two",0,-1
3,"Victim","group",41,0.5,"unfair",4,0,3.82034862799992,"Four",3,1
3,"Victim","group",42,0.6,"unfair",4,1,3.48189279800135,"Four",3,1
3,"Victim","group",43,4.5,"fair",2,0,2.27718545700191,"Two",0,-1
3,"Victim","alone",44,4.1,"fair",NA,0,4.16812897899945,"Alone",NA,-1
3,"Victim","group",45,2.1,"amb",2,1,2.86973889000001,"Two",0,0
3,"Victim","group",46,2.6,"amb",2,0,2.48474190599882,"Two",0,0
3,"Victim","group",47,4.7,"fair",0,0,1.1792661790023,"Zero",-3,-1
3,"Victim","group",48,3.1,"amb",0,0,1.78344794399891,"Zero",-3,0
3,"Victim","group",49,4.4,"fair",2,1,2.61527702699823,"Two",0,-1
3,"Victim","group",50,2.8,"amb",3,0,3.05785719800042,"Three",1,0
3,"Victim","group",51,4.3,"fair",4,1,1.79070486600176,"Four",3,-1
3,"Victim","group",52,4,"fair",4,1,1.22741940299966,"Four",3,-1
3,"Victim","group",53,2.4,"amb",2,1,2.52390934800133,"Two",0,0
3,"Victim","group",54,0.300000000000001,"unfair",4,1,2.72211437900114,"Four",3,1
3,"Victim","group",55,2.9,"amb",3,1,3.36073949500133,"Three",1,0
3,"Victim","group",56,3,"amb",0,0,0.98586673400132,"Zero",-3,0
3,"Victim","group",57,3.8,"fair",1,0,2.29250936099925,"One",-1,-1
3,"Victim","group",58,2.6,"amb",1,0,0.916555297000741,"One",-1,0
3,"Victim","group",59,2.2,"amb",1,1,2.01835766599834,"One",-1,0
3,"Victim","group",60,1.1,"unfair",4,1,1.32755384600023,"Four",3,1
3,"Victim","group",61,0.300000000000001,"unfair",3,1,2.65295718699781,"Three",1,1
3,"Victim","group",62,2.4,"amb",2,0,1.66725579800186,"Two",0,0
3,"Victim","group",63,3.7,"fair",1,0,1.19797666500017,"One",-1,-1
3,"Victim","group",64,3.8,"fair",4,1,1.70061365400034,"Four",3,-1
3,"Victim","group",65,3,"amb",0,0,1.73658246500054,"Zero",-3,0
3,"Victim","group",66,2.2,"amb",3,1,1.97362049499861,"Three",1,0
3,"Victim","group",67,2.5,"amb",2,0,1.17452430299818,"Two",0,0
3,"Victim","group",68,2.5,"amb",1,0,0.778976041998249,"One",-1,0
3,"Victim","group",69,4.4,"fair",1,0,1.12887771000169,"One",-1,-1
3,"Victim","group",70,1.1,"unfair",2,1,1.46676272799959,"Two",0,1
3,"Victim","group",71,0.199999999999999,"unfair",0,0,2.16814650200104,"Zero",-3,1
3,"Victim","group",72,2.2,"amb",3,1,2.07930229900012,"Three",1,0
3,"Victim","group",73,0.4,"unfair",2,0,1.8387129019975,"Two",0,1
3,"Victim","group",74,0.800000000000001,"unfair",0,0,1.96400732300026,"Zero",-3,1
3,"Victim","group",75,2.7,"amb",4,1,1.30417510099869,"Four",3,0
3,"Victim","group",76,3,"amb",3,0,3.23118896500091,"Three",1,0
3,"Victim","group",77,2.7,"amb",1,0,2.02286271900084,"One",-1,0
3,"Victim","group",78,2.8,"amb",1,0,1.86255492399869,"One",-1,0
3,"Victim","group",79,2.2,"amb",3,0,2.95719403700059,"Three",1,0
3,"Victim","group",80,1.1,"unfair",4,0,3.33964733099856,"Four",3,1
3,"Victim","group",81,4.9,"fair",2,1,4.45059325300099,"Two",0,-1
3,"Victim","group",82,1.1,"unfair",3,1,3.5147532330011,"Three",1,1
3,"Victim","group",83,0.800000000000001,"unfair",1,0,2.08954581199941,"One",-1,1
3,"Victim","group",84,2.4,"amb",1,0,1.67793350399734,"One",-1,0
3,"Victim","group",85,0.5,"unfair",0,0,1.35707702199943,"Zero",-3,1
3,"Victim","group",86,2.1,"amb",3,0,2.89366386300026,"Three",1,0
3,"Victim","group",87,4,"fair",2,1,1.62125477699738,"Two",0,-1
3,"Victim","group",88,1.3,"unfair",0,0,1.08457317699867,"Zero",-3,1
3,"Victim","group",89,2.4,"amb",4,0,2.74416905500038,"Four",3,0
3,"Victim","group",90,4.8,"fair",4,1,1.46423000700088,"Four",3,-1
3,"Victim","group",91,4.6,"fair",0,1,3.44202875100018,"Zero",-3,-1
3,"Victim","group",92,4.9,"fair",3,1,1.42595485299898,"Three",1,-1
3,"Victim","group",93,4.4,"fair",0,0,0.897334838999086,"Zero",-3,-1
3,"Victim","group",94,0.199999999999999,"unfair",0,0,1.54290605400092,"Zero",-3,1
3,"Victim","group",96,1.1,"unfair",3,0,3.54349775199807,"Three",1,1
3,"Victim","group",97,2.2,"amb",4,0,2.84303055000055,"Four",3,0
3,"Victim","group",98,1.2,"unfair",4,0,2.9272855090021,"Four",3,1
3,"Victim","group",99,2.4,"amb",1,0,1.78056808399924,"One",-1,0
3,"Victim","group",101,2.9,"amb",3,1,3.1639992829987,"Three",1,0
3,"Victim","group",103,3.9,"fair",3,1,1.79457803499827,"Three",1,-1
3,"Victim","group",104,1.2,"unfair",1,0,1.38017904699882,"One",-1,1
3,"Victim","group",105,4,"fair",3,1,2.67258575000233,"Three",1,-1
3,"Victim","group",106,4.7,"fair",0,0,1.09012120799889,"Zero",-3,-1
3,"Victim","group",107,4,"fair",3,1,1.84323469599985,"Three",1,-1
3,"Victim","alone",108,4.9,"fair",NA,1,3.22366034000152,"Alone",NA,-1
3,"Victim","group",109,2.6,"amb",1,0,2.72682502099997,"One",-1,0
3,"Victim","group",110,0.6,"unfair",0,0,1.43041455400089,"Zero",-3,1
3,"Victim","group",111,0.699999999999999,"unfair",0,0,1.93497970799945,"Zero",-3,1
3,"Victim","alone",112,0.699999999999999,"unfair",NA,0,1.39598255400051,"Alone",NA,1
3,"Victim","group",113,0.5,"unfair",2,0,1.67622106599811,"Two",0,1
3,"Victim","group",114,1,"unfair",0,0,2.09684927899798,"Zero",-3,1
3,"Victim","group",115,1.2,"unfair",3,0,3.37170342500031,"Three",1,1
3,"Victim","alone",117,0.199999999999999,"unfair",NA,0,2.03151338800308,"Alone",NA,1
3,"Victim","group",118,0.6,"unfair",2,0,1.90120163300162,"Two",0,1
3,"Victim","group",119,0.800000000000001,"unfair",1,0,2.76441251100186,"One",-1,1
3,"Victim","group",120,0.199999999999999,"unfair",4,0,3.00126923400239,"Four",3,1
3,"Victim","group",121,2.9,"amb",0,0,2.46867016299802,"Zero",-3,0
3,"Victim","group",122,4.3,"fair",0,1,1.41780165300224,"Zero",-3,-1
3,"Victim","group",123,4.2,"fair",3,1,1.55529376699997,"Three",1,-1
3,"Victim","group",124,2,"amb",0,0,1.84316572100215,"Zero",-3,0
3,"Victim","group",125,2.7,"amb",0,0,1.06530462199953,"Zero",-3,0
3,"Victim","group",126,0.5,"unfair",1,0,1.3401880249985,"One",-1,1
3,"Victim","group",127,1.1,"unfair",2,0,1.72264002899828,"Two",0,1
3,"Victim","group",128,3.9,"fair",1,1,2.43807590000142,"One",-1,-1
3,"Victim","group",129,4.4,"fair",1,1,2.14996520600107,"One",-1,-1
3,"Victim","group",130,4.3,"fair",2,1,1.47979160500108,"Two",0,-1
3,"Victim","group",131,0.699999999999999,"unfair",3,0,1.22401454699866,"Three",1,1
3,"Victim","group",132,2.4,"amb",2,0,1.82566751400009,"Two",0,0
3,"Victim","alone",133,2.3,"amb",NA,0,2.04910216500139,"Alone",NA,0
3,"Victim","alone",134,0.5,"unfair",NA,0,1.36235935300283,"Alone",NA,1
3,"Victim","group",135,4.5,"fair",4,1,1.43305314600002,"Four",3,-1
3,"Victim","group",136,2.3,"amb",0,0,2.6902826100013,"Zero",-3,0
3,"Victim","group",137,4.4,"fair",4,1,1.16731290900134,"Four",3,-1
3,"Victim","group",138,2.1,"amb",2,0,1.0587186820012,"Two",0,0
3,"Victim","group",139,3.9,"fair",0,0,2.52587165199657,"Zero",-3,-1
3,"Victim","group",140,2.7,"amb",1,0,2.10529196000061,"One",-1,0
3,"Victim","group",141,4.2,"fair",4,1,1.52014290000079,"Four",3,-1
3,"Victim","group",142,0.800000000000001,"unfair",2,0,1.98668668399841,"Two",0,1
3,"Victim","group",143,1.1,"unfair",1,0,1.65469823799867,"One",-1,1
3,"Victim","group",144,2,"amb",4,0,2.01527463499951,"Four",3,0
3,"Victim","alone",145,2.6,"amb",NA,0,1.50626429800104,"Alone",NA,0
3,"Victim","group",146,0.5,"unfair",1,0,1.97161095500269,"One",-1,1
3,"Victim","group",147,3.7,"fair",0,1,1.97531744300068,"Zero",-3,-1
3,"Victim","group",148,2.3,"amb",3,0,2.56534610900053,"Three",1,0
3,"Victim","group",149,1.9,"amb",1,0,1.61409441700016,"One",-1,0
3,"Victim","group",150,0.5,"unfair",0,0,0.903943099001481,"Zero",-3,1
3,"Victim","group",151,0.699999999999999,"unfair",3,0,1.34925386899704,"Three",1,1
3,"Victim","group",152,3,"amb",2,0,2.01940152899988,"Two",0,0
3,"Victim","alone",153,4,"fair",NA,1,1.21336784899904,"Alone",NA,-1
3,"Victim","group",154,3.9,"fair",2,1,1.65590933699787,"Two",0,-1
3,"Victim","group",155,1.3,"unfair",2,0,1.02439330700145,"Two",0,1
3,"Victim","group",156,1.2,"unfair",2,0,0.871217823001643,"Two",0,1
3,"Victim","alone",157,3.8,"fair",NA,1,2.52801584300323,"Alone",NA,-1
3,"Victim","group",158,0.800000000000001,"unfair",3,0,1.0129724690014,"Three",1,1
3,"Victim","alone",159,2.9,"amb",NA,1,2.06651987199803,"Alone",NA,0
3,"Victim","group",160,4.7,"fair",4,1,1.70151667000027,"Four",3,-1
3,"Victim","group",161,0.800000000000001,"unfair",3,0,1.14780749200145,"Three",1,1
3,"Victim","group",162,4.7,"fair",4,1,1.09648854799889,"Four",3,-1
3,"Victim","group",163,2.1,"amb",4,1,1.99738941300166,"Four",3,0
3,"Victim","group",164,3,"amb",4,1,2.04563206700186,"Four",3,0
3,"Victim","group",165,0.699999999999999,"unfair",2,0,1.25987435599745,"Two",0,1
3,"Victim","group",166,0.199999999999999,"unfair",2,0,0.929875371999515,"Two",0,1
3,"Victim","group",167,2.5,"amb",4,0,2.87738652800181,"Four",3,0
3,"Victim","group",168,2.9,"amb",4,1,2.07788958099991,"Four",3,0
3,"Victim","group",169,0.5,"unfair",2,0,1.24462677100018,"Two",0,1
3,"Victim","group",170,4.4,"fair",4,1,1.05438258499998,"Four",3,-1
3,"Victim","group",171,2.5,"amb",4,1,2.03061078899918,"Four",3,0
3,"Victim","group",172,2.8,"amb",1,0,2.63449445899823,"One",-1,0
3,"Victim","group",173,0.5,"unfair",2,0,0.87393236799835,"Two",0,1
3,"Victim","group",174,2.6,"amb",2,0,2.9547329570014,"Two",0,0
3,"Victim","group",175,4.3,"fair",3,1,1.21926261499902,"Three",1,-1
3,"Victim","group",176,2.8,"amb",4,0,1.65446787400288,"Four",3,0
3,"Victim","group",177,0.9,"unfair",2,0,0.94066260299951,"Two",0,1
3,"Victim","group",178,0.0999999999999996,"unfair",0,0,0.997911670998292,"Zero",-3,1
3,"Victim","group",179,0.5,"unfair",0,0,0.813964733999455,"Zero",-3,1
3,"Victim","group",180,0.5,"unfair",4,0,0.712188739002158,"Four",3,1
3,"Victim","group",181,0.800000000000001,"unfair",3,1,4.96405222099929,"Three",1,1
3,"Victim","group",182,4.9,"fair",4,1,2.08200829899943,"Four",3,-1
3,"Victim","alone",183,1.2,"unfair",NA,0,2.87352122700031,"Alone",NA,1
3,"Victim","group",185,3.8,"fair",2,1,1.2726255359994,"Two",0,-1
3,"Victim","alone",186,2.7,"amb",NA,1,1.53365200400003,"Alone",NA,0
3,"Victim","group",187,2.6,"amb",3,1,1.17729458699978,"Three",1,0
3,"Victim","group",188,4.8,"fair",0,1,3.21511091999855,"Zero",-3,-1
3,"Victim","group",189,1,"unfair",1,0,1.36410104500101,"One",-1,1
3,"Victim","group",190,2.4,"amb",4,1,1.4986146279989,"Four",3,0
3,"Victim","group",191,3,"amb",0,0,1.4130554000003,"Zero",-3,0
3,"Victim","group",192,2.8,"amb",3,1,2.77864898599728,"Three",1,0
3,"Victim","alone",193,4.1,"fair",NA,1,1.15856161400006,"Alone",NA,-1
3,"Victim","group",194,3.8,"fair",2,1,2.0820395740011,"Two",0,-1
3,"Victim","group",195,0.5,"unfair",0,0,0.965249600001698,"Zero",-3,1
3,"Victim","alone",196,4.7,"fair",NA,1,0.831933583998762,"Alone",NA,-1
3,"Victim","group",197,0.4,"unfair",0,0,1.61258375599937,"Zero",-3,1
3,"Victim","group",198,2,"amb",1,1,1.93442927999786,"One",-1,0
3,"Victim","group",199,3.8,"fair",4,1,1.25550486000066,"Four",3,-1
3,"Victim","group",200,2.3,"amb",1,1,1.07792089500072,"One",-1,0
3,"Victim","group",201,2.1,"amb",1,1,2.8324149580003,"One",-1,0
3,"Victim","group",202,3,"amb",2,1,1.03603021899835,"Two",0,0
3,"Victim","alone",203,2.6,"amb",NA,1,1.48774298300123,"Alone",NA,0
3,"Victim","group",204,0.199999999999999,"unfair",1,0,1.14249190799819,"One",-1,1
3,"Victim","group",205,2.5,"amb",1,1,2.2146726179999,"One",-1,0
3,"Victim","alone",206,2.2,"amb",NA,1,1.04253433300255,"Alone",NA,0
3,"Victim","alone",207,4.9,"fair",NA,1,1.15280102500037,"Alone",NA,-1
3,"Victim","group",208,1,"unfair",2,0,2.05488498000341,"Two",0,1
3,"Victim","group",209,2.3,"amb",2,1,1.85061549300008,"Two",0,0
3,"Victim","alone",210,2,"amb",NA,0,1.69393545400089,"Alone",NA,0
3,"Victim","group",211,1,"unfair",3,0,2.12866406200192,"Three",1,1
3,"Victim","group",212,4.7,"fair",4,1,2.28702610499749,"Four",3,-1
3,"Victim","group",213,0.800000000000001,"unfair",3,0,2.1738579260018,"Three",1,1
3,"Victim","group",214,0.800000000000001,"unfair",1,0,1.5186187750005,"One",-1,1
3,"Victim","group",216,3.9,"fair",0,0,3.11160963099974,"Zero",-3,-1
3,"Victim","group",217,2.3,"amb",0,0,1.68426985999758,"Zero",-3,0
3,"Victim","group",218,4.8,"fair",3,1,1.84365151499878,"Three",1,-1
3,"Victim","group",219,0.9,"unfair",4,1,4.36541781499909,"Four",3,1
3,"Victim","group",220,0.300000000000001,"unfair",2,0,2.4439750599995,"Two",0,1
3,"Victim","alone",221,2.2,"amb",NA,1,1.33374051399733,"Alone",NA,0
3,"Victim","group",222,0.6,"unfair",3,0,3.61469530899922,"Three",1,1
3,"Victim","group",223,0.800000000000001,"unfair",4,1,3.96127597600207,"Four",3,1
3,"Victim","group",224,1,"unfair",1,0,1.50654866699915,"One",-1,1
3,"Victim","alone",225,2.7,"amb",NA,1,3.57774850900023,"Alone",NA,0
3,"Victim","group",226,0.9,"unfair",0,0,0.794656928999757,"Zero",-3,1
3,"Victim","group",227,1.1,"unfair",3,1,2.2841720510005,"Three",1,1
3,"Victim","alone",228,1,"unfair",NA,1,2.48391353700208,"Alone",NA,1
3,"Victim","group",229,2.6,"amb",4,1,2.14377013699777,"Four",3,0
3,"Victim","alone",230,4.8,"fair",NA,1,2.87325805699948,"Alone",NA,-1
3,"Victim","alone",231,4.4,"fair",NA,1,1.34387534599955,"Alone",NA,-1
3,"Victim","group",232,4,"fair",4,1,1.76723651500288,"Four",3,-1
3,"Victim","group",233,3.8,"fair",3,1,2.3631983339983,"Three",1,-1
3,"Victim","group",234,0.6,"unfair",2,1,3.55850615900272,"Two",0,1
3,"Victim","group",235,0.300000000000001,"unfair",3,1,1.81665604400041,"Three",1,1
3,"Victim","group",236,3,"amb",0,1,2.52930206900055,"Zero",-3,0
3,"Victim","group",237,0.4,"unfair",2,0,2.50736593600232,"Two",0,1
3,"Victim","group",238,0.6,"unfair",0,0,1.82190216500021,"Zero",-3,1
3,"Victim","group",239,2.6,"amb",1,0,1.62991937400147,"One",-1,0
3,"Victim","group",240,4.6,"fair",1,1,2.68143026400139,"One",-1,-1
3,"Victim","group",241,2.1,"amb",4,1,2.68774713699895,"Four",3,0
3,"Victim","group",242,4.1,"fair",3,1,1.31657075100156,"Three",1,-1
3,"Victim","group",243,4,"fair",2,1,1.28367786099989,"Two",0,-1
3,"Victim","group",244,2.6,"amb",0,0,3.14699109299909,"Zero",-3,0
3,"Victim","group",245,2,"amb",1,1,2.9889235260016,"One",-1,0
3,"Victim","group",246,1.2,"unfair",0,0,2.47127366199857,"Zero",-3,1
3,"Victim","group",247,4.2,"fair",1,1,1.19299633099945,"One",-1,-1
3,"Victim","group",248,4.8,"fair",1,1,1.46317519899821,"One",-1,-1
3,"Victim","group",249,4.1,"fair",2,1,1.53643439500229,"Two",0,-1
3,"Victim","group",250,4.3,"fair",0,1,0.965155503999995,"Zero",-3,-1
3,"Victim","group",251,4.2,"fair",1,1,1.43798203100232,"One",-1,-1
3,"Victim","group",252,4.1,"fair",2,1,2.76377115099967,"Two",0,-1
3,"Victim","group",253,3.1,"amb",3,1,0.822818876000383,"Three",1,0
3,"Victim","group",254,4.2,"fair",2,1,1.14602163400195,"Two",0,-1
3,"Victim","alone",255,0.9,"unfair",NA,0,1.16288675000033,"Alone",NA,1
3,"Victim","group",256,1,"unfair",3,0,3.15116361299806,"Three",1,1
3,"Victim","group",258,3.1,"amb",0,1,2.26255176500126,"Zero",-3,0
3,"Victim","group",259,4.3,"fair",2,1,1.09670819100211,"Two",0,-1
3,"Victim","group",260,0.5,"unfair",3,1,2.36955413399846,"Three",1,1
3,"Victim","group",261,1.1,"unfair",1,1,1.47433155500039,"One",-1,1
3,"Victim","group",262,1.3,"unfair",0,0,1.87660205899738,"Zero",-3,1
3,"Victim","group",263,1.9,"amb",0,0,2.00984991899895,"Zero",-3,0
3,"Victim","group",264,4.4,"fair",0,1,1.55327400299939,"Zero",-3,-1
3,"Victim","group",265,4.1,"fair",3,1,1.07660898999893,"Three",1,-1
3,"Victim","group",266,4.2,"fair",0,0,2.18614013600018,"Zero",-3,-1
3,"Victim","group",267,2.5,"amb",1,0,2.23067915800129,"One",-1,0
3,"Victim","group",268,0.6,"unfair",2,0,2.13697185799901,"Two",0,1
3,"Victim","group",269,2,"amb",0,1,1.04799524999908,"Zero",-3,0
3,"Victim","group",270,1.9,"amb",2,1,1.22732277199975,"Two",0,0
3,"Victim","group",271,4.8,"fair",0,0,0.983374693001679,"Zero",-3,-1
3,"Victim","group",272,0.699999999999999,"unfair",0,1,1.99088580399984,"Zero",-3,1
3,"Victim","group",273,2.7,"amb",1,0,2.06164489799994,"One",-1,0
3,"Victim","group",274,0.699999999999999,"unfair",1,0,1.59726352399957,"One",-1,1
3,"Victim","group",275,0.5,"unfair",1,0,0.657621764999931,"One",-1,1
3,"Victim","group",276,4.4,"fair",0,1,0.871687756000028,"Zero",-3,-1
3,"Victim","group",277,4.1,"fair",1,1,1.34112552100123,"One",-1,-1
3,"Victim","group",278,2.6,"amb",4,1,3.54325937099929,"Four",3,0
3,"Victim","group",279,4.3,"fair",1,1,1.82884618400203,"One",-1,-1
3,"Victim","group",280,4.8,"fair",1,1,1.88543671799926,"One",-1,-1
3,"Victim","group",281,4.7,"fair",3,1,1.79508605699812,"Three",1,-1
3,"Victim","group",282,4.2,"fair",3,1,0.661160597999697,"Three",1,-1
3,"Victim","group",283,3.9,"fair",1,1,1.80991422499937,"One",-1,-1
3,"Victim","group",284,4.8,"fair",4,1,0.681885796999268,"Four",3,-1
3,"Victim","group",285,2.5,"amb",4,1,1.06080607900003,"Four",3,0
3,"Victim","group",286,4.6,"fair",1,1,1.04989502000171,"One",-1,-1
3,"Victim","alone",287,3.9,"fair",NA,1,1.6386999230017,"Alone",NA,-1
3,"Victim","alone",288,0.5,"unfair",NA,0,1.28450334299851,"Alone",NA,1
3,"Victim","group",289,2,"amb",1,1,2.02202448399839,"One",-1,0
3,"Victim","group",290,1,"unfair",0,0,1.46055705199979,"Zero",-3,1
3,"Victim","group",291,2.5,"amb",4,1,1.51450281199868,"Four",3,0
3,"Victim","group",292,1.9,"amb",4,1,1.57500115700168,"Four",3,0
3,"Victim","group",293,0.5,"unfair",3,0,0.731422795000981,"Three",1,1
3,"Victim","group",294,2.3,"amb",1,1,0.770052693002071,"One",-1,0
3,"Victim","group",295,1,"unfair",3,1,0.817318918998353,"Three",1,1
3,"Victim","group",296,4,"fair",0,1,1.39789932499843,"Zero",-3,-1
3,"Victim","group",297,4,"fair",3,1,1.73997303000215,"Three",1,-1
3,"Victim","group",298,0.199999999999999,"unfair",4,1,2.34807967400047,"Four",3,1
3,"Victim","group",299,3.9,"fair",0,1,2.70910462400207,"Zero",-3,-1
3,"Victim","group",300,0.6,"unfair",4,1,1.57327800900021,"Four",3,1
3,"Victim","group",301,4.5,"fair",0,1,1.41661678899982,"Zero",-3,-1
3,"Victim","group",302,4.8,"fair",1,1,1.38512790399909,"One",-1,-1
3,"Victim","group",303,2.2,"amb",0,1,3.41941403899909,"Zero",-3,0
3,"Victim","group",304,0.9,"unfair",2,0,1.27404653999838,"Two",0,1
3,"Victim","group",305,4.3,"fair",3,1,2.15932870300094,"Three",1,-1
3,"Victim","group",306,3.7,"fair",2,1,0.909599161001097,"Two",0,-1
3,"Victim","group",307,2.9,"amb",0,0,2.92382084600104,"Zero",-3,0
3,"Victim","group",308,2.1,"amb",4,1,1.3924531349985,"Four",3,0
3,"Victim","group",309,4.8,"fair",2,1,0.813953922999644,"Two",0,-1
3,"Victim","group",310,0.699999999999999,"unfair",4,0,0.599295568001253,"Four",3,1
3,"Victim","group",311,2,"amb",2,1,1.2905837440012,"Two",0,0
3,"Victim","group",312,0.300000000000001,"unfair",4,1,0.879236714001308,"Four",3,1
3,"Victim","group",313,1,"unfair",3,0,1.29452402600145,"Three",1,1
3,"Victim","group",314,4.7,"fair",1,1,1.20105513199815,"One",-1,-1
3,"Victim","group",315,4.5,"fair",1,1,1.3853794539973,"One",-1,-1
3,"Victim","group",316,0.4,"unfair",1,0,1.28666722699927,"One",-1,1
3,"Victim","group",317,4.6,"fair",3,1,1.22184828399986,"Three",1,-1
3,"Victim","group",318,2.7,"amb",3,1,1.32590748299845,"Three",1,0
3,"Victim","alone",319,0.4,"unfair",NA,0,2.70449601099972,"Alone",NA,1
3,"Victim","group",320,1,"unfair",0,0,1.24281263399826,"Zero",-3,1
3,"Victim","group",321,2.8,"amb",3,1,0.828981159997056,"Three",1,0
3,"Victim","group",322,4.7,"fair",4,1,1.90248728799997,"Four",3,-1
3,"Victim","group",323,0.800000000000001,"unfair",3,0,2.31205623500136,"Three",1,1
3,"Victim","group",324,0.9,"unfair",4,0,2.15720819799753,"Four",3,1
3,"Victim","alone",325,4.6,"fair",NA,1,1.01726563500051,"Alone",NA,-1
3,"Victim","group",326,2.4,"amb",0,1,2.131350974003,"Zero",-3,0
3,"Victim","group",327,1,"unfair",0,0,0.911315899000328,"Zero",-3,1
3,"Victim","group",328,3,"amb",3,1,2.35511510199649,"Three",1,0
3,"Victim","group",329,1,"unfair",1,0,0.904634864997206,"One",-1,1
3,"Victim","alone",330,4.1,"fair",NA,1,0.875682384001266,"Alone",NA,-1
3,"Victim","group",331,2.8,"amb",0,0,1.13875009599724,"Zero",-3,0
3,"Victim","group",332,0.699999999999999,"unfair",1,0,0.92243964500085,"One",-1,1
3,"Victim","group",333,4.6,"fair",1,1,0.81785730699994,"One",-1,-1
3,"Victim","group",334,0.9,"unfair",2,0,0.836497481999686,"Two",0,1
3,"Victim","group",335,4.7,"fair",3,1,0.996824037996703,"Three",1,-1
3,"Victim","group",336,1.2,"unfair",4,1,0.827192062999529,"Four",3,1
3,"Victim","group",337,0.9,"unfair",4,0,2.51478475800104,"Four",3,1
3,"Victim","alone",338,4.8,"fair",NA,1,0.750486414999614,"Alone",NA,-1
3,"Victim","group",339,0.0999999999999996,"unfair",0,0,0.83450856899799,"Zero",-3,1
3,"Victim","group",340,2.5,"amb",2,1,1.8110023909976,"Two",0,0
3,"Victim","group",341,2,"amb",2,1,0.691877758999908,"Two",0,0
3,"Victim","group",342,2.1,"amb",2,1,1.07200774000012,"Two",0,0
3,"Victim","group",343,0.6,"unfair",4,0,1.29022878199976,"Four",3,1
3,"Victim","group",344,3.9,"fair",4,1,0.90972267899997,"Four",3,-1
3,"Victim","group",345,2,"amb",1,1,0.675840588002757,"One",-1,0
3,"Victim","group",346,4.6,"fair",2,1,0.648637872000108,"Two",0,-1
3,"Victim","group",347,2.9,"amb",4,1,0.910646577998705,"Four",3,0
3,"Victim","group",348,2.2,"amb",2,1,0.779999202000909,"Two",0,0
3,"Victim","group",349,2.8,"amb",3,1,0.62947638300102,"Three",1,0
3,"Victim","alone",350,4.1,"fair",NA,1,0.834318460998475,"Alone",NA,-1
3,"Victim","group",351,4.4,"fair",0,1,0.732637263001379,"Zero",-3,-1
3,"Victim","group",352,3.9,"fair",0,1,0.975833413001965,"Zero",-3,-1
3,"Victim","group",353,2.9,"amb",0,1,1.6289908409999,"Zero",-3,0
3,"Victim","group",354,0.4,"unfair",1,0,1.32117158199981,"One",-1,1
3,"Victim","group",355,2.5,"amb",2,1,1.18367990200204,"Two",0,0
3,"Victim","group",356,1.3,"unfair",2,0,1.04401180300192,"Two",0,1
3,"Victim","group",357,0.699999999999999,"unfair",2,0,1.01399482699708,"Two",0,1
3,"Victim","group",358,2.9,"amb",2,0,1.69143489500129,"Two",0,0
3,"Victim","group",359,2.4,"amb",0,1,1.50464942200051,"Zero",-3,0
3,"Victim","group",360,4.1,"fair",1,1,1.18674582599851,"One",-1,-1
3,"Victim","group",361,3.1,"amb",3,1,0.866748911998002,"Three",1,0
3,"Victim","alone",362,4,"fair",NA,1,0.841921017999994,"Alone",NA,-1
3,"Victim","alone",363,2.5,"amb",NA,1,1.44051755600231,"Alone",NA,0
3,"Victim","group",364,0.0999999999999996,"unfair",2,0,2.74933197499922,"Two",0,1
3,"Victim","group",365,0.199999999999999,"unfair",3,0,3.74436180200064,"Three",1,1
3,"Victim","group",366,1.1,"unfair",0,0,1.46363943699907,"Zero",-3,1
3,"Victim","group",367,2,"amb",4,1,0.830634243997338,"Four",3,0
3,"Victim","group",368,1.3,"unfair",4,1,1.64545939300297,"Four",3,1
3,"Victim","group",369,2.1,"amb",2,1,2.56708510399767,"Two",0,0
3,"Victim","alone",370,0.6,"unfair",NA,0,1.36022357300317,"Alone",NA,1
3,"Victim","group",371,0.6,"unfair",1,0,2.27037379300236,"One",-1,1
3,"Victim","group",372,4.5,"fair",0,1,1.4044132070012,"Zero",-3,-1
3,"Victim","alone",373,3,"amb",NA,1,0.846045311001944,"Alone",NA,0
3,"Victim","group",374,2.9,"amb",4,1,1.67540062199987,"Four",3,0
3,"Victim","group",375,0.4,"unfair",1,0,0.805991724002524,"One",-1,1
3,"Victim","group",376,2.8,"amb",3,1,0.764401312997506,"Three",1,0
3,"Victim","group",377,2.2,"amb",4,1,0.691745372998412,"Four",3,0
3,"Victim","group",378,2.1,"amb",3,1,1.31224565999946,"Three",1,0
3,"Victim","group",379,2.1,"amb",2,1,0.60152217400173,"Two",0,0
3,"Victim","group",380,0.6,"unfair",1,0,0.924391543998354,"One",-1,1
3,"Victim","group",381,3.9,"fair",1,1,1.55584711499978,"One",-1,-1
3,"Victim","group",382,3,"amb",0,1,0.659952983998664,"Zero",-3,0
3,"Victim","group",383,3.8,"fair",3,1,0.744439729998703,"Three",1,-1
3,"Victim","alone",384,0.199999999999999,"unfair",NA,0,0.874346499000239,"Alone",NA,1
3,"Victim","group",385,0.699999999999999,"unfair",4,1,3.20000727300067,"Four",3,1
3,"Victim","group",386,2.5,"amb",3,1,2.01054077400113,"Three",1,0
3,"Victim","group",387,2.3,"amb",3,1,1.35071084299852,"Three",1,0
3,"Victim","group",388,3.8,"fair",4,1,0.74722759100041,"Four",3,-1
3,"Victim","alone",389,2.2,"amb",NA,1,1.01134878599987,"Alone",NA,0
3,"Victim","group",390,4.3,"fair",0,1,1.36993517800147,"Zero",-3,-1
3,"Victim","group",391,2.5,"amb",3,1,1.64769690499816,"Three",1,0
3,"Victim","alone",392,2.9,"amb",NA,1,0.817877481000323,"Alone",NA,0
3,"Victim","group",393,1,"unfair",3,1,1.34393772000112,"Three",1,1
3,"Victim","group",394,4.5,"fair",2,1,1.22735924600056,"Two",0,-1
3,"Victim","group",395,2.5,"amb",2,1,0.990572321999935,"Two",0,0
3,"Victim","group",396,1.2,"unfair",4,1,2.91796998200152,"Four",3,1
3,"Victim","alone",397,0.800000000000001,"unfair",NA,0,1.66213751800024,"Alone",NA,1
3,"Victim","group",398,4.6,"fair",4,1,1.55386788800024,"Four",3,-1
3,"Victim","group",399,4.4,"fair",3,1,2.19174491499871,"Three",1,-1
3,"Victim","group",400,4.6,"fair",4,1,0.700071445000503,"Four",3,-1
3,"Victim","group",401,4.6,"fair",0,1,1.18939559199862,"Zero",-3,-1
3,"Victim","group",402,4.6,"fair",2,1,1.74803400900055,"Two",0,-1
3,"Victim","group",403,4.8,"fair",1,1,0.791825596999843,"One",-1,-1
3,"Victim","group",404,4.7,"fair",0,1,0.825468790000741,"Zero",-3,-1
3,"Victim","group",405,4.7,"fair",2,1,0.664365204000205,"Two",0,-1
3,"Victim","alone",406,0.800000000000001,"unfair",NA,0,1.28051128299921,"Alone",NA,1
3,"Victim","group",407,4,"fair",1,1,0.708127762001823,"One",-1,-1
3,"Victim","group",408,4.6,"fair",4,1,1.07678614700126,"Four",3,-1
3,"Victim","group",409,2.5,"amb",4,1,1.690584158001,"Four",3,0
3,"Victim","group",410,1,"unfair",4,0,1.61831873399933,"Four",3,1
3,"Victim","group",411,3.8,"fair",3,1,0.836907198001427,"Three",1,-1
3,"Victim","group",412,3.7,"fair",1,1,1.04453721200116,"One",-1,-1
3,"Victim","alone",413,0.5,"unfair",NA,0,1.55000399900018,"Alone",NA,1
3,"Victim","alone",414,2.3,"amb",NA,1,2.35724081399894,"Alone",NA,0
3,"Victim","group",415,2.7,"amb",2,1,1.3436456950003,"Two",0,0
3,"Victim","group",416,4.2,"fair",3,1,1.29537198000253,"Three",1,-1
3,"Victim","group",417,1.2,"unfair",3,0,1.05699407900102,"Three",1,1
3,"Victim","group",418,1.1,"unfair",2,0,1.87625138799922,"Two",0,1
3,"Victim","group",419,1.9,"amb",0,0,2.21540584600007,"Zero",-3,0
3,"Victim","group",420,2.8,"amb",1,1,2.75011519300097,"One",-1,0
3,"Victim","group",421,4.5,"fair",3,1,0.831240236002486,"Three",1,-1
3,"Victim","group",422,4.7,"fair",2,1,0.673972157997923,"Two",0,-1
3,"Victim","group",423,2.5,"amb",4,1,1.21096986200064,"Four",3,0
3,"Victim","group",424,2.5,"amb",2,1,1.48350796500017,"Two",0,0
3,"Victim","group",425,2.9,"amb",0,1,1.35804826100139,"Zero",-3,0
3,"Victim","group",426,0.4,"unfair",4,0,1.66198938600064,"Four",3,1
3,"Victim","group",427,4.2,"fair",2,1,1.33741555600136,"Two",0,-1
3,"Victim","group",428,4.1,"fair",2,1,1.40248326399887,"Two",0,-1
3,"Victim","group",429,4.6,"fair",3,1,1.4583575559991,"Three",1,-1
3,"Victim","group",430,0.800000000000001,"unfair",1,0,1.0612534460015,"One",-1,1
3,"Victim","group",431,4.6,"fair",3,1,0.837895990000106,"Three",1,-1
3,"Victim","group",432,0.9,"unfair",1,0,1.11994183099887,"One",-1,1
3,"Victim","group",433,4.5,"fair",2,0,3.07783144700079,"Two",0,-1
3,"Victim","group",434,2,"amb",4,1,0.873268721999921,"Four",3,0
3,"Victim","group",435,4.8,"fair",0,1,1.34372253100082,"Zero",-3,-1
3,"Victim","alone",436,0.199999999999999,"unfair",NA,1,1.11008993200085,"Alone",NA,1
3,"Victim","group",437,0.5,"unfair",1,1,2.05679146200055,"One",-1,1
3,"Victim","group",438,0.4,"unfair",0,1,0.789252896000107,"Zero",-3,1
3,"Victim","group",439,1.1,"unfair",4,1,0.851225073001842,"Four",3,1
3,"Victim","group",440,2.5,"amb",3,1,1.43466472,"Three",1,0
3,"Victim","group",441,4.3,"fair",4,1,1.06904219300122,"Four",3,-1
3,"Victim","group",442,0.699999999999999,"unfair",2,1,1.93856971499918,"Two",0,1
3,"Victim","group",443,4.7,"fair",4,1,1.06871974500245,"Four",3,-1
3,"Victim","group",444,0.4,"unfair",0,0,1.43071431600038,"Zero",-3,1
3,"Victim","group",445,2.7,"amb",0,0,2.23264296100024,"Zero",-3,0
3,"Victim","group",446,4.5,"fair",2,1,1.05782474799707,"Two",0,-1
3,"Victim","alone",447,0.0999999999999996,"unfair",NA,0,1.17772005200095,"Alone",NA,1
3,"Victim","group",448,4.6,"fair",1,1,1.30489470500106,"One",-1,-1
3,"Victim","group",449,2.7,"amb",2,1,2.37404492299902,"Two",0,0
3,"Victim","group",450,2.1,"amb",3,1,0.821263197998633,"Three",1,0
4,"Victim","group",31,4.2,"fair",3,1,1.60605958598899,"Three",1,-1
4,"Victim","group",32,0.199999999999999,"unfair",1,1,0.93666906299768,"One",-1,1
4,"Victim","group",33,2.3,"amb",1,0,2.23220248799771,"One",-1,0
4,"Victim","group",34,2.4,"amb",0,0,1.61979138897732,"Zero",-3,0
4,"Victim","group",35,3.8,"fair",4,0,1.71229513501748,"Four",3,-1
4,"Victim","alone",36,2.4,"amb",NA,0,1.50583795900457,"Alone",NA,0
4,"Victim","group",37,1.3,"unfair",1,0,1.53443410000182,"One",-1,1
4,"Victim","group",38,4.7,"fair",3,1,1.61828503498691,"Three",1,-1
4,"Victim","group",39,4.2,"fair",1,1,1.45912733499426,"One",-1,-1
4,"Victim","group",40,4.3,"fair",2,1,1.5293746929965,"Two",0,-1
4,"Victim","group",41,0.5,"unfair",4,0,1.23506873199949,"Four",3,1
4,"Victim","group",42,0.6,"unfair",4,1,1.19130732899066,"Four",3,1
4,"Victim","group",43,4.5,"fair",2,1,1.99520086098346,"Two",0,-1
4,"Victim","alone",44,4.1,"fair",NA,1,1.86161497700959,"Alone",NA,-1
4,"Victim","group",45,2.1,"amb",2,1,2.14075798998238,"Two",0,0
4,"Victim","group",46,2.6,"amb",2,1,1.35104306502035,"Two",0,0
4,"Victim","group",47,4.7,"fair",0,1,1.600424527016,"Zero",-3,-1
4,"Victim","group",48,3.1,"amb",0,0,1.49785099498695,"Zero",-3,0
4,"Victim","group",49,4.4,"fair",2,1,2.16301745499368,"Two",0,-1
4,"Victim","group",50,2.8,"amb",3,0,1.99033663800219,"Three",1,0
4,"Victim","group",51,4.3,"fair",4,1,1.0458814969752,"Four",3,-1
4,"Victim","group",52,4,"fair",4,1,1.01499415500439,"Four",3,-1
4,"Victim","group",53,2.4,"amb",2,1,1.16402935399674,"Two",0,0
4,"Victim","group",54,0.300000000000001,"unfair",4,1,0.997540887998184,"Four",3,1
4,"Victim","group",55,2.9,"amb",3,1,0.910608211008366,"Three",1,0
4,"Victim","group",56,3,"amb",0,0,1.38076170100248,"Zero",-3,0
4,"Victim","group",57,3.8,"fair",1,1,2.50108899100451,"One",-1,-1
4,"Victim","group",58,2.6,"amb",1,0,1.40638465899974,"One",-1,0
4,"Victim","group",59,2.2,"amb",1,0,1.75906209400273,"One",-1,0
4,"Victim","group",60,1.1,"unfair",4,1,0.748598384991055,"Four",3,1
4,"Victim","group",61,0.300000000000001,"unfair",3,1,1.26386805099901,"Three",1,1
4,"Victim","group",62,2.4,"amb",2,1,1.10762072500074,"Two",0,0
4,"Victim","group",63,3.7,"fair",1,1,1.96234935501707,"One",-1,-1
4,"Victim","group",64,3.8,"fair",4,1,0.864185413025552,"Four",3,-1
4,"Victim","group",65,3,"amb",0,1,2.13938998800586,"Zero",-3,0
4,"Victim","group",66,2.2,"amb",3,1,0.983654845011188,"Three",1,0
4,"Victim","group",67,2.5,"amb",2,0,1.97506320200046,"Two",0,0
4,"Victim","group",68,2.5,"amb",1,0,2.17134071400505,"One",-1,0
4,"Victim","group",69,4.4,"fair",1,1,1.11090190400137,"One",-1,-1
4,"Victim","group",70,1.1,"unfair",2,1,1.76090687999385,"Two",0,1
4,"Victim","group",71,0.199999999999999,"unfair",0,0,1.7855189590191,"Zero",-3,1
4,"Victim","group",72,2.2,"amb",3,1,0.912172876007389,"Three",1,0
4,"Victim","group",73,0.4,"unfair",2,1,2.10824323998531,"Two",0,1
4,"Victim","group",74,0.800000000000001,"unfair",0,0,2.21220333999372,"Zero",-3,1
4,"Victim","group",75,2.7,"amb",4,1,1.23175710701616,"Four",3,0
4,"Victim","group",76,3,"amb",3,1,2.02323388902005,"Three",1,0
4,"Victim","group",77,2.7,"amb",1,1,2.49494782200782,"One",-1,0
4,"Victim","group",78,2.8,"amb",1,0,1.42444460300612,"One",-1,0
4,"Victim","group",79,2.2,"amb",3,0,1.68976261600619,"Three",1,0
4,"Victim","group",80,1.1,"unfair",4,1,1.13961984298658,"Four",3,1
4,"Victim","group",81,4.9,"fair",2,0,1.48957294400316,"Two",0,-1
4,"Victim","group",82,1.1,"unfair",3,1,1.51951181801269,"Three",1,1
4,"Victim","group",83,0.800000000000001,"unfair",1,0,1.09285021800315,"One",-1,1
4,"Victim","group",84,2.4,"amb",1,0,1.18561270501232,"One",-1,0
4,"Victim","group",85,0.5,"unfair",0,0,2.28282402001787,"Zero",-3,1
4,"Victim","group",86,2.1,"amb",3,1,1.8864684769942,"Three",1,0
4,"Victim","group",87,4,"fair",2,1,3.96900969897979,"Two",0,-1
4,"Victim","group",88,1.3,"unfair",0,0,1.96762040100293,"Zero",-3,1
4,"Victim","group",89,2.4,"amb",4,1,0.983629597001709,"Four",3,0
4,"Victim","group",90,4.8,"fair",4,1,2.42469047798659,"Four",3,-1
4,"Victim","group",91,4.6,"fair",0,0,0.936196263006423,"Zero",-3,-1
4,"Victim","group",92,4.9,"fair",3,1,0.870059837005101,"Three",1,-1
4,"Victim","group",93,4.4,"fair",0,0,0.817542920005508,"Zero",-3,-1
4,"Victim","group",94,0.199999999999999,"unfair",0,0,1.07218488899525,"Zero",-3,1
4,"Victim","group",95,0.6,"unfair",3,1,1.34100611999747,"Three",1,1
4,"Victim","group",96,1.1,"unfair",3,1,1.01169493800262,"Three",1,1
4,"Victim","group",97,2.2,"amb",4,1,0.705568674020469,"Four",3,0
4,"Victim","group",98,1.2,"unfair",4,1,0.72971721101203,"Four",3,1
4,"Victim","group",99,2.4,"amb",1,0,0.806101891997969,"One",-1,0
4,"Victim","group",100,3.9,"fair",0,0,1.84892532500089,"Zero",-3,-1
4,"Victim","group",101,2.9,"amb",3,1,1.48298838199116,"Three",1,0
4,"Victim","group",102,1.1,"unfair",4,1,0.791619269992225,"Four",3,1
4,"Victim","group",103,3.9,"fair",3,1,1.35367250000127,"Three",1,-1
4,"Victim","group",104,1.2,"unfair",1,0,0.755870666995179,"One",-1,1
4,"Victim","group",105,4,"fair",3,1,0.80892511899583,"Three",1,-1
4,"Victim","group",106,4.7,"fair",0,0,0.883047846000409,"Zero",-3,-1
4,"Victim","group",107,4,"fair",3,1,1.95570520398906,"Three",1,-1
4,"Victim","alone",108,4.9,"fair",NA,1,3.28706272901036,"Alone",NA,-1
4,"Victim","group",109,2.6,"amb",1,1,2.47019222099334,"One",-1,0
4,"Victim","group",110,0.6,"unfair",0,0,1.24417934101075,"Zero",-3,1
4,"Victim","group",111,0.699999999999999,"unfair",0,0,0.998891783005092,"Zero",-3,1
4,"Victim","alone",112,0.699999999999999,"unfair",NA,0,1.93232657600311,"Alone",NA,1
4,"Victim","group",113,0.5,"unfair",2,0,4.06854543997906,"Two",0,1
4,"Victim","group",114,1,"unfair",0,0,1.45224399998551,"Zero",-3,1
4,"Victim","group",115,1.2,"unfair",3,1,1.98878797600628,"Three",1,1
4,"Victim","group",116,3.9,"fair",4,1,2.51221412001178,"Four",3,-1
4,"Victim","alone",117,0.199999999999999,"unfair",NA,1,1.91851715699886,"Alone",NA,1
4,"Victim","group",118,0.6,"unfair",2,1,2.15330772800371,"Two",0,1
4,"Victim","group",119,0.800000000000001,"unfair",1,0,2.37625199797913,"One",-1,1
4,"Victim","group",120,0.199999999999999,"unfair",4,1,1.5441373870126,"Four",3,1
4,"Victim","group",121,2.9,"amb",0,0,2.24560875000316,"Zero",-3,0
4,"Victim","group",122,4.3,"fair",0,1,2.31013643598999,"Zero",-3,-1
4,"Victim","group",123,4.2,"fair",3,1,1.40878240900929,"Three",1,-1
4,"Victim","group",124,2,"amb",0,0,1.46849865699187,"Zero",-3,0
4,"Victim","group",125,2.7,"amb",0,0,1.42692105201422,"Zero",-3,0
4,"Victim","group",126,0.5,"unfair",1,0,1.00789960299153,"One",-1,1
4,"Victim","group",127,1.1,"unfair",2,1,1.94921583301038,"Two",0,1
4,"Victim","group",128,3.9,"fair",1,0,1.75023778501782,"One",-1,-1
4,"Victim","group",129,4.4,"fair",1,0,1.56748023600085,"One",-1,-1
4,"Victim","group",130,4.3,"fair",2,0,1.54433058100403,"Two",0,-1
4,"Victim","group",131,0.699999999999999,"unfair",3,1,1.25709675601684,"Three",1,1
4,"Victim","group",132,2.4,"amb",2,1,1.47229115100345,"Two",0,0
4,"Victim","alone",133,2.3,"amb",NA,1,1.37220970599446,"Alone",NA,0
4,"Victim","alone",134,0.5,"unfair",NA,1,0.912972460006131,"Alone",NA,1
4,"Victim","group",135,4.5,"fair",4,1,1.17820668200147,"Four",3,-1
4,"Victim","group",136,2.3,"amb",0,0,0.739681128994562,"Zero",-3,0
4,"Victim","group",137,4.4,"fair",4,1,0.701909461000469,"Four",3,-1
4,"Victim","group",138,2.1,"amb",2,1,1.67461409399402,"Two",0,0
4,"Victim","group",139,3.9,"fair",0,0,1.50797523499932,"Zero",-3,-1
4,"Victim","group",140,2.7,"amb",1,0,2.22591714700684,"One",-1,0
4,"Victim","group",141,4.2,"fair",4,1,1.88385134100099,"Four",3,-1
4,"Victim","group",142,0.800000000000001,"unfair",2,1,1.69180052701267,"Two",0,1
4,"Victim","group",143,1.1,"unfair",1,1,1.30498759500915,"One",-1,1
4,"Victim","group",144,2,"amb",4,1,0.908390652009984,"Four",3,0
4,"Victim","alone",145,2.6,"amb",NA,1,1.44351567298872,"Alone",NA,0
4,"Victim","group",146,0.5,"unfair",1,0,1.18158875999507,"One",-1,1
4,"Victim","group",147,3.7,"fair",0,0,4.10359354497632,"Zero",-3,-1
4,"Victim","group",148,2.3,"amb",3,1,1.31411552301142,"Three",1,0
4,"Victim","group",149,1.9,"amb",1,0,1.5220946620102,"One",-1,0
4,"Victim","group",150,0.5,"unfair",0,0,1.62550357897999,"Zero",-3,1
4,"Victim","group",151,0.699999999999999,"unfair",3,1,2.36366307898425,"Three",1,1
4,"Victim","group",152,3,"amb",2,0,2.28392781299772,"Two",0,0
4,"Victim","alone",153,4,"fair",NA,0,1.19501152899466,"Alone",NA,-1
4,"Victim","group",154,3.9,"fair",2,0,2.4128123279952,"Two",0,-1
4,"Victim","group",155,1.3,"unfair",2,1,1.21409281701199,"Two",0,1
4,"Victim","group",156,1.2,"unfair",2,1,1.06781663300353,"Two",0,1
4,"Victim","alone",157,3.8,"fair",NA,0,3.22710897200159,"Alone",NA,-1
4,"Victim","group",158,0.800000000000001,"unfair",3,1,1.03613771600067,"Three",1,1
4,"Victim","alone",159,2.9,"amb",NA,1,1.28869918300188,"Alone",NA,0
4,"Victim","group",160,4.7,"fair",4,1,0.975483635003911,"Four",3,-1
4,"Victim","group",161,0.800000000000001,"unfair",3,1,1.23037772800308,"Three",1,1
4,"Victim","group",162,4.7,"fair",4,1,2.18236763399909,"Four",3,-1
4,"Victim","group",163,2.1,"amb",4,1,1.18598207799369,"Four",3,0
4,"Victim","group",164,3,"amb",4,1,1.01638262299821,"Four",3,0
4,"Victim","group",165,0.699999999999999,"unfair",2,1,1.87954705700395,"Two",0,1
4,"Victim","group",166,0.199999999999999,"unfair",2,1,1.1222922320012,"Two",0,1
4,"Victim","group",167,2.5,"amb",4,1,1.50853809298133,"Four",3,0
4,"Victim","group",168,2.9,"amb",4,1,1.36246634501731,"Four",3,0
4,"Victim","group",169,0.5,"unfair",2,1,1.47108573399601,"Two",0,1
4,"Victim","group",170,4.4,"fair",4,1,0.950869673019042,"Four",3,-1
4,"Victim","group",171,2.5,"amb",4,1,0.551396425988059,"Four",3,0
4,"Victim","group",172,2.8,"amb",1,0,0.774741970002651,"One",-1,0
4,"Victim","group",173,0.5,"unfair",2,1,0.696929672994884,"Two",0,1
4,"Victim","group",174,2.6,"amb",2,1,1.67286077901372,"Two",0,0
4,"Victim","group",175,4.3,"fair",3,1,0.900033239013283,"Three",1,-1
4,"Victim","group",176,2.8,"amb",4,1,0.724547493009595,"Four",3,0
4,"Victim","group",177,0.9,"unfair",2,1,1.19129539901041,"Two",0,1
4,"Victim","group",178,0.0999999999999996,"unfair",0,0,0.867404599004658,"Zero",-3,1
4,"Victim","group",179,0.5,"unfair",0,0,0.784129680978367,"Zero",-3,1
4,"Victim","group",180,0.5,"unfair",4,1,0.613611176988343,"Four",3,1
4,"Victim","group",181,0.800000000000001,"unfair",3,1,1.02977363299578,"Three",1,1
4,"Victim","group",182,4.9,"fair",4,1,0.550206266023451,"Four",3,-1
4,"Victim","alone",183,1.2,"unfair",NA,1,1.34559019401786,"Alone",NA,1
4,"Victim","group",184,2.8,"amb",1,0,1.84207426800276,"One",-1,0
4,"Victim","group",185,3.8,"fair",2,0,2.84471233200748,"Two",0,-1
4,"Victim","alone",186,2.7,"amb",NA,1,1.38424429099541,"Alone",NA,0
4,"Victim","group",187,2.6,"amb",3,1,0.845665686007123,"Three",1,0
4,"Victim","group",188,4.8,"fair",0,0,1.67084717002581,"Zero",-3,-1
4,"Victim","group",189,1,"unfair",1,0,1.85802357600187,"One",-1,1
4,"Victim","group",190,2.4,"amb",4,1,1.24406462098705,"Four",3,0
4,"Victim","group",191,3,"amb",0,1,2.64924177600187,"Zero",-3,0
4,"Victim","group",192,2.8,"amb",3,1,1.82894533799845,"Three",1,0
4,"Victim","alone",193,4.1,"fair",NA,0,2.07834591798019,"Alone",NA,-1
4,"Victim","group",194,3.8,"fair",2,1,3.15565211200737,"Two",0,-1
4,"Victim","group",195,0.5,"unfair",0,1,2.80337723999401,"Zero",-3,1
4,"Victim","alone",196,4.7,"fair",NA,0,2.75356740498682,"Alone",NA,-1
4,"Victim","group",197,0.4,"unfair",0,0,2.1139227260137,"Zero",-3,1
4,"Victim","group",198,2,"amb",1,0,1.21633947599912,"One",-1,0
4,"Victim","group",199,3.8,"fair",4,1,1.09203082800377,"Four",3,-1
4,"Victim","group",200,2.3,"amb",1,0,0.840033179993043,"One",-1,0
4,"Victim","group",201,2.1,"amb",1,0,0.762772840011166,"One",-1,0
4,"Victim","group",202,3,"amb",2,1,1.94485395299853,"Two",0,0
4,"Victim","alone",203,2.6,"amb",NA,1,1.05477325801621,"Alone",NA,0
4,"Victim","group",204,0.199999999999999,"unfair",1,0,1.11690227600047,"One",-1,1
4,"Victim","group",205,2.5,"amb",1,0,2.19885785400402,"One",-1,0
4,"Victim","alone",206,2.2,"amb",NA,1,1.44345642300323,"Alone",NA,0
4,"Victim","alone",207,4.9,"fair",NA,0,1.71948130300734,"Alone",NA,-1
4,"Victim","group",208,1,"unfair",2,1,1.11871659199824,"Two",0,1
4,"Victim","group",209,2.3,"amb",2,1,1.12882278702455,"Two",0,0
4,"Victim","alone",210,2,"amb",NA,1,0.729187454999192,"Alone",NA,0
4,"Victim","group",211,1,"unfair",3,1,0.922648686013417,"Three",1,1
4,"Victim","group",212,4.7,"fair",4,1,1.84091812500264,"Four",3,-1
4,"Victim","group",213,0.800000000000001,"unfair",3,1,1.03975892599556,"Three",1,1
4,"Victim","group",214,0.800000000000001,"unfair",1,1,1.34756191199995,"One",-1,1
4,"Victim","group",215,0.0999999999999996,"unfair",3,1,1.40671494600247,"Three",1,1
4,"Victim","group",216,3.9,"fair",0,0,1.77428418898489,"Zero",-3,-1
4,"Victim","group",217,2.3,"amb",0,1,1.49128206001478,"Zero",-3,0
4,"Victim","group",218,4.8,"fair",3,1,1.52009737800108,"Three",1,-1
4,"Victim","group",219,0.9,"unfair",4,1,0.662868717015954,"Four",3,1
4,"Victim","group",220,0.300000000000001,"unfair",2,1,0.945842159009771,"Two",0,1
4,"Victim","alone",221,2.2,"amb",NA,1,1.97756204701727,"Alone",NA,0
4,"Victim","group",222,0.6,"unfair",3,1,0.679468435992021,"Three",1,1
4,"Victim","group",223,0.800000000000001,"unfair",4,1,0.833694810979068,"Four",3,1
4,"Victim","group",224,1,"unfair",1,0,0.990924304001965,"One",-1,1
4,"Victim","alone",225,2.7,"amb",NA,1,1.48323670899845,"Alone",NA,0
4,"Victim","group",226,0.9,"unfair",0,0,0.846219947998179,"Zero",-3,1
4,"Victim","group",227,1.1,"unfair",3,1,0.982927709002979,"Three",1,1
4,"Victim","alone",228,1,"unfair",NA,1,0.809395785006927,"Alone",NA,1
4,"Victim","group",229,2.6,"amb",4,1,0.576839700981509,"Four",3,0
4,"Victim","alone",230,4.8,"fair",NA,0,1.5447647680121,"Alone",NA,-1
4,"Victim","alone",231,4.4,"fair",NA,0,0.687407732999418,"Alone",NA,-1
4,"Victim","group",232,4,"fair",4,1,0.543693060986698,"Four",3,-1
4,"Victim","group",233,3.8,"fair",3,1,0.555366999993566,"Three",1,-1
4,"Victim","group",234,0.6,"unfair",2,1,1.00690797201241,"Two",0,1
4,"Victim","group",235,0.300000000000001,"unfair",3,1,0.47694308499922,"Three",1,1
4,"Victim","group",236,3,"amb",0,0,1.31286768001155,"Zero",-3,0
4,"Victim","group",237,0.4,"unfair",2,1,1.12501682498259,"Two",0,1
4,"Victim","group",238,0.6,"unfair",0,0,0.78318271500757,"Zero",-3,1
4,"Victim","group",239,2.6,"amb",1,0,1.05132382898591,"One",-1,0
4,"Victim","group",240,4.6,"fair",1,0,1.75890156399691,"One",-1,-1
4,"Victim","group",241,2.1,"amb",4,1,0.817827068007318,"Four",3,0
4,"Victim","group",242,4.1,"fair",3,0,1.78434176498558,"Three",1,-1
4,"Victim","group",243,4,"fair",2,1,1.21169094499783,"Two",0,-1
4,"Victim","group",244,2.6,"amb",0,0,1.70092711100006,"Zero",-3,0
4,"Victim","group",245,2,"amb",1,0,1.16001833198243,"One",-1,0
4,"Victim","group",246,1.2,"unfair",0,0,0.802490595990093,"Zero",-3,1
4,"Victim","group",247,4.2,"fair",1,0,1.2416022340185,"One",-1,-1
4,"Victim","group",248,4.8,"fair",1,0,0.994017798977438,"One",-1,-1
4,"Victim","group",249,4.1,"fair",2,0,0.932819823996397,"Two",0,-1
4,"Victim","group",250,4.3,"fair",0,0,0.902865440992173,"Zero",-3,-1
4,"Victim","group",251,4.2,"fair",1,0,0.913930959010031,"One",-1,-1
4,"Victim","group",252,4.1,"fair",2,0,1.66718661299092,"Two",0,-1
4,"Victim","group",253,3.1,"amb",3,1,0.786920242011547,"Three",1,0
4,"Victim","group",254,4.2,"fair",2,0,2.21423464201507,"Two",0,-1
4,"Victim","alone",255,0.9,"unfair",NA,1,0.867189991986379,"Alone",NA,1
4,"Victim","group",256,1,"unfair",3,1,0.901154574006796,"Three",1,1
4,"Victim","group",257,2.4,"amb",3,1,0.70157294801902,"Three",1,0
4,"Victim","group",258,3.1,"amb",0,0,1.40562340000179,"Zero",-3,0
4,"Victim","group",259,4.3,"fair",2,1,1.20826050499454,"Two",0,-1
4,"Victim","group",260,0.5,"unfair",3,1,0.572868007002398,"Three",1,1
4,"Victim","group",261,1.1,"unfair",1,1,1.89057943801163,"One",-1,1
4,"Victim","group",262,1.3,"unfair",0,0,0.979285528999753,"Zero",-3,1
4,"Victim","group",263,1.9,"amb",0,0,0.661073984985705,"Zero",-3,0
4,"Victim","group",264,4.4,"fair",0,0,0.512919050001074,"Zero",-3,-1
4,"Victim","group",265,4.1,"fair",3,1,0.804899131995626,"Three",1,-1
4,"Victim","group",266,4.2,"fair",0,0,0.603252758999588,"Zero",-3,-1
4,"Victim","group",267,2.5,"amb",1,0,1.09591154998634,"One",-1,0
4,"Victim","group",268,0.6,"unfair",2,1,2.20910463301698,"Two",0,1
4,"Victim","group",269,2,"amb",0,0,0.942464378022123,"Zero",-3,0
4,"Victim","group",270,1.9,"amb",2,1,0.687917185976403,"Two",0,0
4,"Victim","group",271,4.8,"fair",0,0,1.06972775401664,"Zero",-3,-1
4,"Victim","group",272,0.699999999999999,"unfair",0,0,0.729691915010335,"Zero",-3,1
4,"Victim","group",273,2.7,"amb",1,0,0.818890769995051,"One",-1,0
4,"Victim","group",274,0.699999999999999,"unfair",1,0,0.460951070010196,"One",-1,1
4,"Victim","group",275,0.5,"unfair",1,0,0.924101701995824,"One",-1,1
4,"Victim","group",276,4.4,"fair",0,0,1.1375328549766,"Zero",-3,-1
4,"Victim","group",277,4.1,"fair",1,0,0.912082597002154,"One",-1,-1
4,"Victim","group",278,2.6,"amb",4,1,1.56272628100123,"Four",3,0
4,"Victim","group",279,4.3,"fair",1,0,1.15858483099146,"One",-1,-1
4,"Victim","group",280,4.8,"fair",1,0,1.12106443499215,"One",-1,-1
4,"Victim","group",281,4.7,"fair",3,1,0.684947111993097,"Three",1,-1
4,"Victim","group",282,4.2,"fair",3,1,1.17738572900998,"Three",1,-1
4,"Victim","group",283,3.9,"fair",1,0,0.89609039798961,"One",-1,-1
4,"Victim","group",284,4.8,"fair",4,1,0.7818085020117,"Four",3,-1
4,"Victim","group",285,2.5,"amb",4,1,0.788666231004754,"Four",3,0
4,"Victim","group",286,4.6,"fair",1,0,1.31432534501073,"One",-1,-1
4,"Victim","alone",287,3.9,"fair",NA,1,1.32226652599638,"Alone",NA,-1
4,"Victim","alone",288,0.5,"unfair",NA,1,1.10229207799421,"Alone",NA,1
4,"Victim","group",289,2,"amb",1,1,1.33433853200404,"One",-1,0
4,"Victim","group",290,1,"unfair",0,0,1.02349778599455,"Zero",-3,1
4,"Victim","group",291,2.5,"amb",4,1,0.781501089979429,"Four",3,0
4,"Victim","group",292,1.9,"amb",4,1,0.678542681009276,"Four",3,0
4,"Victim","group",293,0.5,"unfair",3,1,0.829416235996177,"Three",1,1
4,"Victim","group",294,2.3,"amb",1,1,1.54420789799769,"One",-1,0
4,"Victim","group",295,1,"unfair",3,1,0.734305007004878,"Three",1,1
4,"Victim","group",296,4,"fair",0,0,1.25706688500941,"Zero",-3,-1
4,"Victim","group",297,4,"fair",3,1,0.809172439010581,"Three",1,-1
4,"Victim","group",298,0.199999999999999,"unfair",4,1,0.661767764016986,"Four",3,1
4,"Victim","group",299,3.9,"fair",0,0,0.784182162984507,"Zero",-3,-1
4,"Victim","group",300,0.6,"unfair",4,1,0.532896419987082,"Four",3,1
4,"Victim","group",301,4.5,"fair",0,0,0.896743454999523,"Zero",-3,-1
4,"Victim","group",302,4.8,"fair",1,0,0.731745443015825,"One",-1,-1
4,"Victim","group",303,2.2,"amb",0,0,0.636802963010268,"Zero",-3,0
4,"Victim","group",304,0.9,"unfair",2,1,1.19975126901409,"Two",0,1
4,"Victim","group",305,4.3,"fair",3,1,0.821613047010032,"Three",1,-1
4,"Victim","group",306,3.7,"fair",2,1,1.99378739501117,"Two",0,-1
4,"Victim","group",307,2.9,"amb",0,0,1.21990494601778,"Zero",-3,0
4,"Victim","group",308,2.1,"amb",4,1,0.951606482005445,"Four",3,0
4,"Victim","group",309,4.8,"fair",2,0,1.34152972899028,"Two",0,-1
4,"Victim","group",310,0.699999999999999,"unfair",4,1,0.872415128018474,"Four",3,1
4,"Victim","group",311,2,"amb",2,1,2.64959076498053,"Two",0,0
4,"Victim","group",312,0.300000000000001,"unfair",4,1,1.46432892599842,"Four",3,1
4,"Victim","group",313,1,"unfair",3,1,2.64638368497253,"Three",1,1
4,"Victim","group",314,4.7,"fair",1,0,1.33296727898414,"One",-1,-1
4,"Victim","group",315,4.5,"fair",1,0,1.42284637299599,"One",-1,-1
4,"Victim","group",316,0.4,"unfair",1,0,2.07356058599544,"One",-1,1
4,"Victim","group",317,4.6,"fair",3,1,1.0642059550155,"Three",1,-1
4,"Victim","group",318,2.7,"amb",3,1,1.33894160200725,"Three",1,0
4,"Victim","alone",319,0.4,"unfair",NA,1,0.994910139997955,"Alone",NA,1
4,"Victim","group",320,1,"unfair",0,0,0.879839735018322,"Zero",-3,1
4,"Victim","group",321,2.8,"amb",3,1,1.10234482798842,"Three",1,0
4,"Victim","group",322,4.7,"fair",4,1,1.33057792499312,"Four",3,-1
4,"Victim","group",323,0.800000000000001,"unfair",3,1,1.72896830600803,"Three",1,1
4,"Victim","group",324,0.9,"unfair",4,1,0.891570647014305,"Four",3,1
4,"Victim","alone",325,4.6,"fair",NA,0,1.68993741300073,"Alone",NA,-1
4,"Victim","group",326,2.4,"amb",0,0,0.834274220018415,"Zero",-3,0
4,"Victim","group",327,1,"unfair",0,0,0.713641876005568,"Zero",-3,1
