"subj_idx","study","phase","trial","offer","fair_cat","rev_con","response","rt","rev_cat","rev_centered","fair_con"
301,"Juror","group",31,3.8,"fair",1,1,1.27554113199585,"One",-1,-1
301,"Juror","group",32,4.5,"fair",3,0,1.32357244301238,"Three",1,-1
301,"Juror","alone",33,2.1,"amb",NA,1,1.3732655190106,"Alone",NA,0
301,"Juror","group",34,1.1,"unfair",4,1,0.925720475992421,"Four",3,1
301,"Juror","group",35,4.7,"fair",0,0,1.16073881799821,"Zero",-3,-1
301,"Juror","group",36,4.6,"fair",0,0,0.814759575994685,"Zero",-3,-1
301,"Juror","group",37,0.5,"unfair",2,1,0.957660566986306,"Two",0,1
301,"Juror","alone",38,4.8,"fair",NA,0,1.83158519599237,"Alone",NA,-1
301,"Juror","group",39,2.3,"amb",1,1,0.727692655025749,"One",-1,0
301,"Juror","alone",40,3.8,"fair",NA,0,1.09001680702204,"Alone",NA,-1
301,"Juror","group",41,0.699999999999999,"unfair",3,1,0.82458734602551,"Three",1,1
301,"Juror","alone",42,2.1,"amb",NA,1,0.68193679099204,"Alone",NA,0
301,"Juror","group",43,0.9,"unfair",2,1,0.664592946006451,"Two",0,1
301,"Juror","group",44,2.2,"amb",0,1,0.642049988993676,"Zero",-3,0
301,"Juror","group",45,3.7,"fair",3,1,1.60816014101147,"Three",1,-1
301,"Juror","group",46,0.4,"unfair",1,1,0.663517098990269,"One",-1,1
301,"Juror","group",47,2.1,"amb",3,1,0.610303391003981,"Three",1,0
301,"Juror","group",48,3.7,"fair",2,1,0.637806799990358,"Two",0,-1
301,"Juror","group",49,0.6,"unfair",0,1,1.34914263899554,"Zero",-3,1
301,"Juror","group",50,4.3,"fair",3,1,0.565427199006081,"Three",1,-1
301,"Juror","alone",51,1.9,"amb",NA,1,0.654128916998161,"Alone",NA,0
301,"Juror","group",52,0.300000000000001,"unfair",2,1,0.641665962990373,"Two",0,1
301,"Juror","group",53,3.8,"fair",4,1,1.26143228300498,"Four",3,-1
301,"Juror","group",54,1.2,"unfair",3,1,0.553207088989438,"Three",1,1
301,"Juror","group",55,2.9,"amb",3,1,0.601916585001163,"Three",1,0
301,"Juror","group",56,2.1,"amb",2,1,0.609550022985786,"Two",0,0
301,"Juror","group",57,2.4,"amb",0,1,0.602092484012246,"Zero",-3,0
301,"Juror","group",58,0.699999999999999,"unfair",3,1,0.891523589001736,"Three",1,1
301,"Juror","group",59,3.8,"fair",0,1,0.515651897992939,"Zero",-3,-1
301,"Juror","alone",60,0.9,"unfair",NA,1,0.550187087996164,"Alone",NA,1
301,"Juror","alone",61,4.7,"fair",NA,0,0.643610099999933,"Alone",NA,-1
301,"Juror","group",62,2.7,"amb",2,1,0.57812750802259,"Two",0,0
301,"Juror","alone",63,1.1,"unfair",NA,1,0.60844368400285,"Alone",NA,1
301,"Juror","group",64,4.1,"fair",1,0,0.784078317985404,"One",-1,-1
301,"Juror","group",65,2,"amb",4,1,1.05954455200117,"Four",3,0
301,"Juror","group",66,0.9,"unfair",2,1,0.945754566986579,"Two",0,1
301,"Juror","group",67,2.2,"amb",2,1,0.571375461993739,"Two",0,0
301,"Juror","group",68,4.8,"fair",4,0,0.870760619000066,"Four",3,-1
301,"Juror","group",69,3.1,"amb",2,0,0.893959128996357,"Two",0,0
301,"Juror","group",70,0.5,"unfair",0,1,0.606810447003227,"Zero",-3,1
301,"Juror","group",71,2.7,"amb",2,1,0.651501913001994,"Two",0,0
301,"Juror","group",72,4.7,"fair",2,0,0.722735147981439,"Two",0,-1
301,"Juror","group",73,2.2,"amb",3,1,1.31044340299559,"Three",1,0
301,"Juror","group",74,4.4,"fair",2,0,0.720085189008387,"Two",0,-1
301,"Juror","alone",75,1.2,"unfair",NA,1,0.701241727976594,"Alone",NA,1
301,"Juror","group",76,3.7,"fair",1,1,0.972539303998929,"One",-1,-1
301,"Juror","group",77,0.5,"unfair",4,1,0.62491252500331,"Four",3,1
301,"Juror","group",78,0.800000000000001,"unfair",1,1,0.527999827987514,"One",-1,1
301,"Juror","alone",79,4.1,"fair",NA,0,0.64994516200386,"Alone",NA,-1
301,"Juror","group",80,4,"fair",1,0,0.940300735004712,"One",-1,-1
301,"Juror","group",81,3.9,"fair",0,0,0.875026555993827,"Zero",-3,-1
301,"Juror","group",82,2.5,"amb",0,1,0.848939618997974,"Zero",-3,0
301,"Juror","group",83,4.1,"fair",3,0,0.853863970987732,"Three",1,-1
301,"Juror","group",84,2.9,"amb",4,1,0.63985980997677,"Four",3,0
301,"Juror","group",85,1.9,"amb",1,1,0.704320657008793,"One",-1,0
301,"Juror","group",86,2.9,"amb",4,1,0.934326193004381,"Four",3,0
301,"Juror","group",87,1.2,"unfair",3,1,0.589751830004388,"Three",1,1
301,"Juror","group",88,3,"amb",4,1,0.566293226002017,"Four",3,0
301,"Juror","group",89,1,"unfair",4,1,0.702380097995047,"Four",3,1
301,"Juror","group",90,0.199999999999999,"unfair",2,1,0.865960136987269,"Two",0,1
301,"Juror","group",91,2,"amb",0,1,0.584951355005614,"Zero",-3,0
301,"Juror","group",92,4.4,"fair",1,0,0.646658083016519,"One",-1,-1
301,"Juror","group",93,4.5,"fair",3,0,0.703008936980041,"Three",1,-1
301,"Juror","group",94,0.6,"unfair",4,1,0.76607745300862,"Four",3,1
301,"Juror","group",95,2.3,"amb",1,0,0.696045894001145,"One",-1,0
301,"Juror","group",96,0.5,"unfair",0,1,0.799821141001303,"Zero",-3,1
301,"Juror","group",97,4.4,"fair",4,0,0.67439567000838,"Four",3,-1
301,"Juror","group",98,2.3,"amb",0,1,0.890344588988228,"Zero",-3,0
301,"Juror","group",99,0.0999999999999996,"unfair",3,1,0.591437894996488,"Three",1,1
301,"Juror","group",100,4.1,"fair",4,1,0.667874621023657,"Four",3,-1
301,"Juror","group",101,4.3,"fair",1,0,0.971860706980806,"One",-1,-1
301,"Juror","group",102,4.6,"fair",3,0,0.747394937003264,"Three",1,-1
301,"Juror","group",103,0.5,"unfair",3,1,1.01355762599269,"Three",1,1
301,"Juror","group",104,3.7,"fair",3,0,0.665498490998289,"Three",1,-1
301,"Juror","group",105,4,"fair",0,0,0.661799857014557,"Zero",-3,-1
301,"Juror","group",106,3.1,"amb",3,0,0.872308326011989,"Three",1,0
301,"Juror","group",107,3.8,"fair",1,0,0.903163985989522,"One",-1,-1
301,"Juror","group",108,4,"fair",0,0,0.79743676900398,"Zero",-3,-1
301,"Juror","group",109,3,"amb",0,0,0.97704867500579,"Zero",-3,0
301,"Juror","group",110,0.699999999999999,"unfair",1,1,0.911111863009864,"One",-1,1
301,"Juror","group",111,2.8,"amb",2,1,0.709170791000361,"Two",0,0
301,"Juror","group",112,2.3,"amb",2,1,0.552991030999692,"Two",0,0
301,"Juror","group",113,4.6,"fair",3,0,0.796068752999417,"Three",1,-1
301,"Juror","group",114,0.9,"unfair",0,1,0.626928628014866,"Zero",-3,1
301,"Juror","group",115,0.6,"unfair",1,1,0.769183413009159,"One",-1,1
301,"Juror","group",116,4.1,"fair",1,0,0.803741444979096,"One",-1,-1
301,"Juror","group",117,0.800000000000001,"unfair",3,1,0.782621471997118,"Three",1,1
301,"Juror","group",118,2.3,"amb",4,1,1.24792856097338,"Four",3,0
301,"Juror","group",119,4.7,"fair",3,0,0.813328907010145,"Three",1,-1
301,"Juror","group",120,2.2,"amb",1,0,0.918438340973807,"One",-1,0
301,"Juror","alone",121,2.2,"amb",NA,1,0.812071180989733,"Alone",NA,0
301,"Juror","group",122,3,"amb",2,1,0.737919325008988,"Two",0,0
301,"Juror","group",123,0.300000000000001,"unfair",2,1,0.637018270004774,"Two",0,1
301,"Juror","group",124,4.7,"fair",1,0,0.843146619998151,"One",-1,-1
301,"Juror","group",125,2.7,"amb",4,1,0.601569588005077,"Four",3,0
301,"Juror","group",126,4,"fair",2,0,0.726205017010216,"Two",0,-1
301,"Juror","group",127,0.699999999999999,"unfair",4,1,0.690975288016489,"Four",3,1
301,"Juror","group",128,2.6,"amb",2,1,0.833961911004735,"Two",0,0
301,"Juror","group",129,3.9,"fair",2,1,0.73030317897792,"Two",0,-1
301,"Juror","group",130,4.7,"fair",3,0,0.677690031996462,"Three",1,-1
301,"Juror","group",131,2.4,"amb",2,1,0.859062775998609,"Two",0,0
301,"Juror","group",132,0.6,"unfair",4,1,0.564964485005476,"Four",3,1
301,"Juror","group",133,0.699999999999999,"unfair",4,1,0.521598941006232,"Four",3,1
301,"Juror","group",134,2.5,"amb",0,0,0.864397507015383,"Zero",-3,0
301,"Juror","group",135,0.699999999999999,"unfair",0,1,0.47129308100557,"Zero",-3,1
301,"Juror","group",136,4.4,"fair",3,0,0.638860336010111,"Three",1,-1
301,"Juror","group",137,2,"amb",4,1,1.63535608199891,"Four",3,0
301,"Juror","alone",138,2.3,"amb",NA,1,0.563993924006354,"Alone",NA,0
301,"Juror","group",139,2.2,"amb",3,1,0.770474371995078,"Three",1,0
301,"Juror","group",140,1,"unfair",3,1,0.655076308990829,"Three",1,1
301,"Juror","group",141,0.300000000000001,"unfair",0,1,0.836510994995479,"Zero",-3,1
301,"Juror","group",142,0.5,"unfair",1,1,0.620402333996026,"One",-1,1
301,"Juror","alone",143,2.6,"amb",NA,1,0.675407909991918,"Alone",NA,0
301,"Juror","group",144,0.699999999999999,"unfair",0,1,0.705029675998958,"Zero",-3,1
301,"Juror","group",145,2.9,"amb",2,1,0.698017121991143,"Two",0,0
301,"Juror","group",146,2.7,"amb",1,1,0.757827281020582,"One",-1,0
301,"Juror","group",147,3.8,"fair",2,1,0.594587383006001,"Two",0,-1
301,"Juror","group",148,4.3,"fair",3,0,0.830354384001112,"Three",1,-1
301,"Juror","group",149,3.9,"fair",4,1,0.892304882989265,"Four",3,-1
301,"Juror","group",150,4.3,"fair",1,1,0.887664291018154,"One",-1,-1
301,"Juror","group",151,2.5,"amb",3,0,0.851057996012969,"Three",1,0
301,"Juror","group",152,4.8,"fair",4,1,0.772135186998639,"Four",3,-1
301,"Juror","group",153,0.800000000000001,"unfair",3,1,1.02329419800662,"Three",1,1
301,"Juror","group",154,4.7,"fair",4,1,1.02862127800472,"Four",3,-1
301,"Juror","group",155,2.1,"amb",0,1,0.822368319990346,"Zero",-3,0
301,"Juror","group",156,4.8,"fair",2,0,0.663425580016337,"Two",0,-1
301,"Juror","group",157,2.5,"amb",1,1,0.847063508990686,"One",-1,0
301,"Juror","alone",158,4.6,"fair",NA,0,0.816837998980191,"Alone",NA,-1
301,"Juror","group",159,4.7,"fair",2,0,0.959981802996481,"Two",0,-1
301,"Juror","group",160,4.2,"fair",4,0,1.08660482600681,"Four",3,-1
301,"Juror","group",161,3.1,"amb",2,0,1.0633682369953,"Two",0,0
301,"Juror","group",162,2,"amb",4,1,1.03465310900356,"Four",3,0
301,"Juror","group",163,3.9,"fair",4,1,0.755090660997666,"Four",3,-1
301,"Juror","group",164,4.1,"fair",0,0,0.844301831995836,"Zero",-3,-1
301,"Juror","group",165,2.8,"amb",0,1,0.886205035989406,"Zero",-3,0
301,"Juror","group",166,4.4,"fair",4,0,0.70983564000926,"Four",3,-1
301,"Juror","group",167,2,"amb",3,1,0.648522912990302,"Three",1,0
301,"Juror","group",168,1.2,"unfair",2,1,0.633606657997007,"Two",0,1
301,"Juror","group",169,0.9,"unfair",4,1,0.618496918992605,"Four",3,1
301,"Juror","group",170,1,"unfair",3,1,0.60724632901838,"Three",1,1
301,"Juror","group",171,2.9,"amb",1,1,0.629463252000278,"One",-1,0
301,"Juror","group",172,0.800000000000001,"unfair",4,1,0.6656542349956,"Four",3,1
301,"Juror","group",173,1,"unfair",3,1,0.561698645004071,"Three",1,1
301,"Juror","group",174,1.2,"unfair",4,1,0.490811038995162,"Four",3,1
301,"Juror","alone",175,4.3,"fair",NA,1,0.536719771975186,"Alone",NA,-1
301,"Juror","group",176,4.6,"fair",4,0,0.938678440987132,"Four",3,-1
301,"Juror","group",177,2.3,"amb",1,1,0.760079154017149,"One",-1,0
301,"Juror","group",178,3.9,"fair",2,0,0.777118591009639,"Two",0,-1
301,"Juror","group",179,4.7,"fair",0,0,0.790163191006286,"Zero",-3,-1
301,"Juror","alone",180,2.2,"amb",NA,1,0.711048752011266,"Alone",NA,0
301,"Juror","group",181,3.1,"amb",3,1,0.789847163978266,"Three",1,0
301,"Juror","group",182,0.4,"unfair",3,1,0.798722504987381,"Three",1,1
301,"Juror","group",183,2.6,"amb",3,1,0.686157674004789,"Three",1,0
301,"Juror","group",184,4.8,"fair",3,0,1.13409688702086,"Three",1,-1
301,"Juror","group",185,0.300000000000001,"unfair",2,1,0.754616124002496,"Two",0,1
301,"Juror","alone",186,3,"amb",NA,1,0.779408339993097,"Alone",NA,0
301,"Juror","group",187,0.9,"unfair",3,1,0.66775924700778,"Three",1,1
301,"Juror","group",188,1.1,"unfair",0,1,0.582794634014135,"Zero",-3,1
301,"Juror","group",189,2.3,"amb",1,1,0.548340982000809,"One",-1,0
301,"Juror","group",190,2.2,"amb",0,1,0.642048834997695,"Zero",-3,0
301,"Juror","group",191,1,"unfair",4,1,0.623669018008513,"Four",3,1
301,"Juror","group",192,1,"unfair",2,1,0.52439735198277,"Two",0,1
301,"Juror","group",193,2.7,"amb",4,1,0.619846846006112,"Four",3,0
301,"Juror","group",194,4.9,"fair",4,0,0.673217807983747,"Four",3,-1
301,"Juror","group",195,3.7,"fair",1,0,1.05629786499776,"One",-1,-1
301,"Juror","group",196,4.5,"fair",0,0,0.637893456994789,"Zero",-3,-1
301,"Juror","group",197,0.6,"unfair",2,1,0.758536890993128,"Two",0,1
301,"Juror","group",198,2.7,"amb",2,0,0.678416979004396,"Two",0,0
301,"Juror","group",199,1.1,"unfair",3,1,0.837971098982962,"Three",1,1
301,"Juror","group",200,2.3,"amb",1,0,0.683639414986828,"One",-1,0
301,"Juror","group",201,4.7,"fair",1,0,0.777500563999638,"One",-1,-1
301,"Juror","group",202,4.7,"fair",0,0,0.755127028998686,"Zero",-3,-1
301,"Juror","group",203,1,"unfair",2,1,0.743889793026028,"Two",0,1
301,"Juror","alone",204,4.5,"fair",NA,0,0.744260159000987,"Alone",NA,-1
301,"Juror","group",205,2.8,"amb",1,1,1.22989533300279,"One",-1,0
301,"Juror","group",206,4.5,"fair",4,0,1.0725593350071,"Four",3,-1
301,"Juror","group",207,2.4,"amb",1,1,0.703416819014819,"One",-1,0
301,"Juror","group",208,4.3,"fair",2,0,0.80351204200997,"Two",0,-1
301,"Juror","alone",209,4.9,"fair",NA,0,0.610097049007891,"Alone",NA,-1
301,"Juror","group",210,0.5,"unfair",1,1,0.667938418017002,"One",-1,1
301,"Juror","group",211,2.6,"amb",0,1,0.797412396001164,"Zero",-3,0
301,"Juror","group",212,4.9,"fair",4,0,1.04050760599785,"Four",3,-1
301,"Juror","group",213,4.8,"fair",3,0,1.19698427099502,"Three",1,-1
301,"Juror","group",214,4.7,"fair",2,0,0.76067364399205,"Two",0,-1
301,"Juror","group",215,2.7,"amb",2,1,0.725418455025647,"Two",0,0
301,"Juror","group",216,0.4,"unfair",4,1,1.14647090900689,"Four",3,1
301,"Juror","group",217,0.699999999999999,"unfair",2,1,0.763275022007292,"Two",0,1
301,"Juror","group",218,2.4,"amb",0,1,0.556699859007495,"Zero",-3,0
301,"Juror","group",219,4.6,"fair",4,0,0.700444740999956,"Four",3,-1
301,"Juror","group",220,2.7,"amb",1,0,1.06690344001981,"One",-1,0
301,"Juror","alone",221,3.7,"fair",NA,1,0.993042239017086,"Alone",NA,-1
301,"Juror","group",222,4.9,"fair",1,0,0.989395837008487,"One",-1,-1
301,"Juror","group",223,0.6,"unfair",1,1,0.692350789002376,"One",-1,1
301,"Juror","group",224,4.5,"fair",3,0,0.819618201989215,"Three",1,-1
301,"Juror","group",225,1.1,"unfair",1,1,0.705575814004987,"One",-1,1
301,"Juror","group",226,4,"fair",0,0,0.580763740988914,"Zero",-3,-1
301,"Juror","group",227,0.5,"unfair",2,1,0.804168549017049,"Two",0,1
301,"Juror","group",228,4.2,"fair",2,0,0.629543924005702,"Two",0,-1
301,"Juror","group",229,3.9,"fair",1,1,0.661471464001806,"One",-1,-1
301,"Juror","group",230,0.699999999999999,"unfair",1,1,0.600861244020052,"One",-1,1
301,"Juror","group",231,4.7,"fair",3,0,0.613609385007294,"Three",1,-1
301,"Juror","group",232,0.699999999999999,"unfair",4,1,0.692943386005936,"Four",3,1
301,"Juror","group",233,2.9,"amb",4,1,0.922034635994351,"Four",3,0
301,"Juror","group",234,1.3,"unfair",3,1,0.568025051994482,"Three",1,1
301,"Juror","alone",235,3.8,"fair",NA,1,1.01122342300368,"Alone",NA,-1
301,"Juror","group",236,2.7,"amb",0,1,0.655886974011082,"Zero",-3,0
301,"Juror","group",237,2.9,"amb",0,1,0.58706579299178,"Zero",-3,0
301,"Juror","group",238,2.8,"amb",2,1,0.703195010020863,"Two",0,0
301,"Juror","group",239,0.0999999999999996,"unfair",2,1,0.626976870000362,"Two",0,1
301,"Juror","group",240,4,"fair",3,0,0.987711524008773,"Three",1,-1
301,"Juror","group",241,4.8,"fair",0,0,0.922639230004279,"Zero",-3,-1
301,"Juror","group",242,1.2,"unfair",1,1,0.94602910298272,"One",-1,1
301,"Juror","group",243,4.8,"fair",0,0,1.54772951599443,"Zero",-3,-1
301,"Juror","alone",244,0.199999999999999,"unfair",NA,1,0.681679312983761,"Alone",NA,1
301,"Juror","group",245,2.6,"amb",4,1,1.16568565397756,"Four",3,0
301,"Juror","group",246,0.699999999999999,"unfair",0,1,0.672582977014827,"Zero",-3,1
301,"Juror","group",247,2.5,"amb",4,1,0.607244857004844,"Four",3,0
301,"Juror","group",248,2.7,"amb",3,1,0.785972896002932,"Three",1,0
301,"Juror","group",249,4.7,"fair",1,0,0.785621004004497,"One",-1,-1
301,"Juror","group",250,0.5,"unfair",4,1,0.78587185399374,"Four",3,1
301,"Juror","group",251,0.699999999999999,"unfair",0,1,0.990403295989381,"Zero",-3,1
301,"Juror","group",252,2.7,"amb",2,0,0.907333329989342,"Two",0,0
301,"Juror","group",253,4.9,"fair",3,0,0.778453613980673,"Three",1,-1
301,"Juror","group",254,2.4,"amb",1,1,0.829218004015274,"One",-1,0
301,"Juror","group",255,3,"amb",0,1,0.621637221978744,"Zero",-3,0
301,"Juror","group",256,4.6,"fair",3,0,0.852884952997556,"Three",1,-1
301,"Juror","group",257,4.6,"fair",4,0,0.566462712013163,"Four",3,-1
301,"Juror","group",258,2.2,"amb",2,1,0.768467496003723,"Two",0,0
301,"Juror","group",259,3.8,"fair",2,1,0.969555654999567,"Two",0,-1
301,"Juror","group",260,2.5,"amb",3,1,0.579345689999172,"Three",1,0
301,"Juror","group",261,3.8,"fair",1,1,1.08133027001168,"One",-1,-1
301,"Juror","group",262,3.9,"fair",2,1,0.723215071018785,"Two",0,-1
301,"Juror","alone",263,4.3,"fair",NA,0,1.10567808902124,"Alone",NA,-1
301,"Juror","group",264,2.6,"amb",0,1,0.76038913501543,"Zero",-3,0
301,"Juror","group",265,0.800000000000001,"unfair",0,1,0.609406271018088,"Zero",-3,1
301,"Juror","group",266,4.6,"fair",2,0,0.639686648006318,"Two",0,-1
301,"Juror","group",267,4.7,"fair",2,0,0.709140699007548,"Two",0,-1
301,"Juror","group",268,2.5,"amb",2,0,0.827984074014239,"Two",0,0
301,"Juror","group",269,0.6,"unfair",3,1,0.883246970013715,"Three",1,1
301,"Juror","alone",270,4.1,"fair",NA,1,1.11513886999455,"Alone",NA,-1
301,"Juror","group",271,0.800000000000001,"unfair",1,1,0.776866600994254,"One",-1,1
301,"Juror","group",272,2.4,"amb",0,1,0.668698994006263,"Zero",-3,0
301,"Juror","group",273,2.8,"amb",4,1,0.767092833004426,"Four",3,0
301,"Juror","group",274,2.6,"amb",1,1,0.640997094014892,"One",-1,0
301,"Juror","group",275,4.6,"fair",0,0,0.921000614995137,"Zero",-3,-1
301,"Juror","group",276,0.300000000000001,"unfair",4,1,1.08937315898947,"Four",3,1
301,"Juror","group",277,3.1,"amb",1,1,0.974807057995349,"One",-1,0
301,"Juror","group",278,3,"amb",3,1,0.814826834015548,"Three",1,0
301,"Juror","group",279,0.300000000000001,"unfair",0,1,0.787206549983239,"Zero",-3,1
301,"Juror","alone",280,1.2,"unfair",NA,1,0.600899628014304,"Alone",NA,1
301,"Juror","group",281,1.1,"unfair",4,1,0.837547142000403,"Four",3,1
301,"Juror","alone",282,0.4,"unfair",NA,1,0.542902613000479,"Alone",NA,1
301,"Juror","group",283,0.300000000000001,"unfair",1,1,0.60511205700459,"One",-1,1
301,"Juror","group",284,1,"unfair",2,1,0.810987053002464,"Two",0,1
301,"Juror","group",285,1,"unfair",3,1,0.52442885999335,"Three",1,1
301,"Juror","group",286,2.1,"amb",2,1,0.596805565000977,"Two",0,0
301,"Juror","group",287,3.1,"amb",3,1,0.654324081988307,"Three",1,0
301,"Juror","group",288,2.6,"amb",4,1,0.737813726998866,"Four",3,0
301,"Juror","group",289,1,"unfair",1,1,0.780740577989491,"One",-1,1
301,"Juror","group",290,2.6,"amb",1,1,0.72379545099102,"One",-1,0
301,"Juror","alone",291,4.6,"fair",NA,0,0.963622949988348,"Alone",NA,-1
301,"Juror","group",292,1.3,"unfair",2,1,0.630200637999224,"Two",0,1
301,"Juror","group",293,4.2,"fair",1,0,0.711754604999442,"One",-1,-1
301,"Juror","group",294,2.8,"amb",3,1,1.06768204600667,"Three",1,0
301,"Juror","group",295,0.6,"unfair",4,1,0.636537095007952,"Four",3,1
301,"Juror","group",296,2.8,"amb",1,1,0.571055768989027,"One",-1,0
301,"Juror","group",297,0.5,"unfair",2,1,0.578876893006964,"Two",0,1
301,"Juror","group",298,3.9,"fair",4,1,0.746642459009308,"Four",3,-1
301,"Juror","group",299,0.9,"unfair",0,1,0.674633115006145,"Zero",-3,1
301,"Juror","group",300,4.5,"fair",0,0,1.31250882599852,"Zero",-3,-1
301,"Juror","group",301,4.6,"fair",2,0,0.65900981699815,"Two",0,-1
301,"Juror","group",302,4.6,"fair",0,0,0.509105313016335,"Zero",-3,-1
301,"Juror","group",303,1.2,"unfair",1,1,0.894358857010957,"One",-1,1
301,"Juror","group",304,0.6,"unfair",0,1,0.789477754005929,"Zero",-3,1
301,"Juror","group",305,2.9,"amb",4,1,0.685366507008439,"Four",3,0
301,"Juror","group",306,1.1,"unfair",3,1,0.653725885989843,"Three",1,1
301,"Juror","alone",307,2.7,"amb",NA,1,0.725039267010288,"Alone",NA,0
301,"Juror","group",308,2.4,"amb",3,1,0.585017900011735,"Three",1,0
301,"Juror","group",309,4.5,"fair",4,0,0.68728685300448,"Four",3,-1
301,"Juror","alone",310,0.4,"unfair",NA,1,0.72816011699615,"Alone",NA,1
301,"Juror","group",311,1,"unfair",2,1,0.536273890989833,"Two",0,1
301,"Juror","group",312,3.1,"amb",3,0,0.732385862997035,"Three",1,0
301,"Juror","group",313,4.4,"fair",1,0,0.648411533999024,"One",-1,-1
301,"Juror","group",314,2.1,"amb",3,1,0.821431894990383,"Three",1,0
301,"Juror","group",315,1.1,"unfair",0,1,0.789019073999953,"Zero",-3,1
301,"Juror","group",316,4.6,"fair",4,1,1.15463302299031,"Four",3,-1
301,"Juror","group",317,0.5,"unfair",2,1,0.584643470006995,"Two",0,1
301,"Juror","group",318,3,"amb",1,1,0.991786496975692,"One",-1,0
301,"Juror","group",319,4.1,"fair",1,0,1.36888787298813,"One",-1,-1
301,"Juror","alone",320,1.1,"unfair",NA,0,1.30207258299924,"Alone",NA,1
301,"Juror","group",321,2.3,"amb",0,1,1.22004443299375,"Zero",-3,0
301,"Juror","group",322,4.8,"fair",2,0,1.37902798701543,"Two",0,-1
301,"Juror","alone",323,0.699999999999999,"unfair",NA,1,0.900470558000961,"Alone",NA,1
301,"Juror","group",324,4,"fair",1,0,0.821627557015745,"One",-1,-1
301,"Juror","alone",325,0.699999999999999,"unfair",NA,1,0.592363872972783,"Alone",NA,1
301,"Juror","group",326,0.300000000000001,"unfair",1,1,0.529542490985477,"One",-1,1
301,"Juror","group",327,0.199999999999999,"unfair",3,1,0.491447053995216,"Three",1,1
301,"Juror","group",328,2.8,"amb",3,1,0.591390174027765,"Three",1,0
301,"Juror","alone",329,1.9,"amb",NA,1,0.570975437003653,"Alone",NA,0
301,"Juror","group",330,2.9,"amb",4,1,0.622315888991579,"Four",3,0
301,"Juror","group",331,2.5,"amb",2,1,0.673612293001497,"Two",0,0
301,"Juror","group",332,1.2,"unfair",0,1,0.715213118994143,"Zero",-3,1
301,"Juror","group",333,0.4,"unfair",1,1,0.65397851500893,"One",-1,1
301,"Juror","group",334,2.2,"amb",0,1,0.625406418985222,"Zero",-3,0
301,"Juror","alone",335,0.699999999999999,"unfair",NA,1,0.642063573992345,"Alone",NA,1
301,"Juror","group",336,2.4,"amb",0,1,0.639699523017043,"Zero",-3,0
301,"Juror","group",337,0.300000000000001,"unfair",1,1,0.669661888008704,"One",-1,1
301,"Juror","group",338,2,"amb",4,1,0.909686360013438,"Four",3,0
301,"Juror","group",339,4.1,"fair",2,0,0.725818261998938,"Two",0,-1
301,"Juror","group",340,1.1,"unfair",4,1,1.32875946199056,"Four",3,1
301,"Juror","group",341,0.699999999999999,"unfair",1,1,0.776699786016252,"One",-1,1
301,"Juror","group",342,2.8,"amb",4,1,0.575986997020664,"Four",3,0
301,"Juror","group",343,0.300000000000001,"unfair",0,1,0.52246903401101,"Zero",-3,1
301,"Juror","group",344,4,"fair",4,0,0.816889006993733,"Four",3,-1
301,"Juror","alone",345,4.6,"fair",NA,0,0.656077908002771,"Alone",NA,-1
301,"Juror","group",346,4.5,"fair",1,0,1.14259818699793,"One",-1,-1
301,"Juror","group",347,2.1,"amb",1,1,1.13783971898374,"One",-1,0
301,"Juror","group",348,2.2,"amb",4,1,1.74048115801997,"Four",3,0
301,"Juror","group",349,4.3,"fair",0,0,0.631365195004037,"Zero",-3,-1
301,"Juror","group",350,2,"amb",4,1,1.04063227798906,"Four",3,0
301,"Juror","group",351,4.3,"fair",0,0,1.24535733999801,"Zero",-3,-1
301,"Juror","group",352,0.199999999999999,"unfair",3,1,0.815524493984412,"Three",1,1
301,"Juror","group",353,1.2,"unfair",3,1,0.922595843992895,"Three",1,1
301,"Juror","group",354,4,"fair",0,0,0.905371345987078,"Zero",-3,-1
301,"Juror","group",355,4,"fair",2,0,0.995077043015044,"Two",0,-1
301,"Juror","group",356,1,"unfair",0,1,1.28657751801074,"Zero",-3,1
301,"Juror","group",357,4.1,"fair",3,0,0.889562980999472,"Three",1,-1
301,"Juror","group",358,4.7,"fair",4,0,0.627564860973507,"Four",3,-1
301,"Juror","group",359,0.9,"unfair",0,1,0.88373010099167,"Zero",-3,1
301,"Juror","alone",360,2.3,"amb",NA,1,0.587605041015195,"Alone",NA,0
301,"Juror","group",361,2.2,"amb",0,1,1.04737322599976,"Zero",-3,0
301,"Juror","group",362,1,"unfair",3,0,0.910983147012303,"Three",1,1
301,"Juror","group",363,4.6,"fair",2,0,1.25724220098346,"Two",0,-1
301,"Juror","group",364,1,"unfair",0,1,1.03083168002195,"Zero",-3,1
301,"Juror","alone",365,0.6,"unfair",NA,1,0.642368399014231,"Alone",NA,1
301,"Juror","group",366,1.1,"unfair",0,1,0.908120773994597,"Zero",-3,1
301,"Juror","group",367,3,"amb",3,1,1.45278876100201,"Three",1,0
301,"Juror","group",368,0.5,"unfair",1,1,0.607954370003426,"One",-1,1
301,"Juror","group",369,1.9,"amb",1,1,0.554318615992088,"One",-1,0
301,"Juror","group",370,3.8,"fair",3,1,1.85130803400534,"Three",1,-1
301,"Juror","group",371,2.1,"amb",2,1,0.571954835002543,"Two",0,0
301,"Juror","group",372,1,"unfair",3,1,1.49974366300739,"Three",1,1
301,"Juror","group",373,3.1,"amb",3,1,1.02554858499207,"Three",1,0
301,"Juror","group",374,2.2,"amb",3,1,0.838316259003477,"Three",1,0
301,"Juror","group",375,2.2,"amb",0,1,0.636525994021213,"Zero",-3,0
301,"Juror","group",376,4.2,"fair",4,0,0.955621037021047,"Four",3,-1
301,"Juror","group",377,2.1,"amb",2,0,0.658279719995335,"Two",0,0
301,"Juror","group",378,2.6,"amb",0,1,1.06590307198348,"Zero",-3,0
301,"Juror","group",379,4.8,"fair",0,0,0.749281573022017,"Zero",-3,-1
301,"Juror","group",380,4.3,"fair",0,0,0.658765442000004,"Zero",-3,-1
301,"Juror","group",381,4.9,"fair",4,0,0.798387640010333,"Four",3,-1
301,"Juror","group",382,2.1,"amb",1,1,0.645550104993163,"One",-1,0
301,"Juror","group",383,1.1,"unfair",0,1,0.748899271013215,"Zero",-3,1
301,"Juror","group",384,2.9,"amb",1,1,0.613620767981047,"One",-1,0
301,"Juror","alone",385,2.2,"amb",NA,1,0.605343386996537,"Alone",NA,0
301,"Juror","alone",386,0.4,"unfair",NA,1,0.603251859021839,"Alone",NA,1
301,"Juror","group",387,4.5,"fair",2,0,0.665985771018313,"Two",0,-1
301,"Juror","group",388,4.8,"fair",1,0,0.647968527016928,"One",-1,-1
301,"Juror","group",389,4.7,"fair",4,0,1.40716130298097,"Four",3,-1
301,"Juror","group",390,4.1,"fair",3,0,0.505194849014515,"Three",1,-1
301,"Juror","group",391,0.699999999999999,"unfair",4,1,0.627291285985848,"Four",3,1
301,"Juror","group",392,2.7,"amb",3,1,1.26174364698818,"Three",1,0
301,"Juror","group",393,2.2,"amb",4,1,0.989899334002985,"Four",3,0
301,"Juror","alone",394,3.1,"amb",NA,1,1.08091547200456,"Alone",NA,0
301,"Juror","group",395,0.199999999999999,"unfair",4,1,0.619688780978322,"Four",3,1
301,"Juror","group",396,1,"unfair",2,1,0.723083618999226,"Two",0,1
301,"Juror","group",397,1.1,"unfair",2,1,0.598120729002403,"Two",0,1
301,"Juror","group",398,2.5,"amb",4,1,0.635575452004559,"Four",3,0
301,"Juror","group",399,1.1,"unfair",2,1,0.59837598100421,"Two",0,1
301,"Juror","group",400,4.5,"fair",3,0,0.791483681998216,"Three",1,-1
301,"Juror","group",401,2.6,"amb",2,1,1.27590348100057,"Two",0,0
301,"Juror","group",402,1.1,"unfair",4,1,0.703303092013812,"Four",3,1
301,"Juror","group",403,1,"unfair",2,1,0.804888553015189,"Two",0,1
301,"Juror","group",404,2.4,"amb",1,1,0.548447820008732,"One",-1,0
301,"Juror","group",405,0.4,"unfair",1,1,0.771190997009398,"One",-1,1
301,"Juror","group",406,2.7,"amb",4,0,0.967725669994252,"Four",3,0
301,"Juror","group",407,4,"fair",1,0,0.815130712027894,"One",-1,-1
301,"Juror","group",408,4.6,"fair",4,0,0.742676367983222,"Four",3,-1
301,"Juror","alone",409,2.6,"amb",NA,1,1.03243186799227,"Alone",NA,0
301,"Juror","group",410,2.3,"amb",2,1,0.735257189982804,"Two",0,0
301,"Juror","group",411,4.5,"fair",2,0,0.780402534990571,"Two",0,-1
301,"Juror","group",412,4.5,"fair",0,0,0.932730822998565,"Zero",-3,-1
301,"Juror","group",413,4,"fair",3,0,0.929279898002278,"Three",1,-1
301,"Juror","alone",414,2.6,"amb",NA,1,0.871759522997309,"Alone",NA,0
301,"Juror","group",415,2.2,"amb",2,1,1.45983907100162,"Two",0,0
301,"Juror","alone",416,0.199999999999999,"unfair",NA,1,0.703860203007935,"Alone",NA,1
301,"Juror","alone",417,4.1,"fair",NA,0,0.815458767989185,"Alone",NA,-1
301,"Juror","group",418,1.2,"unfair",1,1,0.811572170990985,"One",-1,1
301,"Juror","group",419,4.3,"fair",2,0,0.742441550013609,"Two",0,-1
301,"Juror","group",420,2.5,"amb",0,1,0.678557256993372,"Zero",-3,0
301,"Juror","group",421,0.5,"unfair",2,1,0.850333509006305,"Two",0,1
301,"Juror","group",422,4.9,"fair",2,0,0.697571892989799,"Two",0,-1
301,"Juror","group",423,2.4,"amb",3,1,0.716325014975155,"Three",1,0
301,"Juror","group",424,3,"amb",1,1,0.651075274014147,"One",-1,0
301,"Juror","group",425,4.1,"fair",3,0,0.686850717989728,"Three",1,-1
301,"Juror","group",426,3.8,"fair",0,0,0.996355931012658,"Zero",-3,-1
301,"Juror","group",427,1.2,"unfair",4,1,0.616718873992795,"Four",3,1
301,"Juror","group",428,2.3,"amb",3,1,0.71514742198633,"Three",1,0
301,"Juror","group",429,1.2,"unfair",4,1,0.730320975999348,"Four",3,1
301,"Juror","group",430,0.199999999999999,"unfair",0,1,0.549833337019663,"Zero",-3,1
301,"Juror","group",431,2.7,"amb",3,1,0.616622695000842,"Three",1,0
301,"Juror","group",432,4.5,"fair",1,0,0.623360768979182,"One",-1,-1
301,"Juror","group",433,2.2,"amb",4,1,0.583063080004649,"Four",3,0
301,"Juror","group",434,0.4,"unfair",1,1,0.69168135500513,"One",-1,1
301,"Juror","group",435,0.5,"unfair",0,1,0.543966500001261,"Zero",-3,1
301,"Juror","group",436,4.1,"fair",1,1,0.611078086018097,"One",-1,-1
301,"Juror","group",437,1.1,"unfair",1,1,0.68798779300414,"One",-1,1
301,"Juror","group",438,1.1,"unfair",3,1,0.700038484996185,"Three",1,1
301,"Juror","group",439,2.8,"amb",4,1,0.573851573019056,"Four",3,0
301,"Juror","group",440,1,"unfair",2,1,0.531439967016922,"Two",0,1
301,"Juror","group",441,0.4,"unfair",3,1,0.587749808997614,"Three",1,1
301,"Juror","group",442,4.6,"fair",0,0,0.862727866013302,"Zero",-3,-1
301,"Juror","group",443,0.300000000000001,"unfair",4,1,0.63669008098077,"Four",3,1
301,"Juror","group",444,0.300000000000001,"unfair",0,1,0.681576561008114,"Zero",-3,1
301,"Juror","group",445,0.0999999999999996,"unfair",1,1,0.881628019007621,"One",-1,1
301,"Juror","group",446,2.9,"amb",0,1,0.721579131990438,"Zero",-3,0
301,"Juror","group",447,4.9,"fair",0,1,0.841737990995171,"Zero",-3,-1
301,"Juror","alone",448,0.4,"unfair",NA,1,0.547332021000329,"Alone",NA,1
301,"Juror","group",449,1.2,"unfair",1,1,0.538409606990172,"One",-1,1
301,"Juror","group",450,0.300000000000001,"unfair",4,1,1.83986364200246,"Four",3,1
302,"Juror","alone",31,0.0999999999999996,"unfair",NA,1,1.87865976500325,"Alone",NA,1
302,"Juror","group",32,1.1,"unfair",4,1,1.30691928899614,"Four",3,1
302,"Juror","group",33,2.9,"amb",2,0,1.26198777099489,"Two",0,0
302,"Juror","group",34,0.199999999999999,"unfair",3,1,1.23772620400996,"Three",1,1
302,"Juror","alone",35,2.4,"amb",NA,0,1.78389660699759,"Alone",NA,0
302,"Juror","group",36,0.300000000000001,"unfair",2,1,1.62983309000265,"Two",0,1
302,"Juror","group",37,4,"fair",3,0,1.16586175200064,"Three",1,-1
302,"Juror","group",38,0.9,"unfair",3,1,1.06084694399033,"Three",1,1
302,"Juror","group",39,4.3,"fair",0,0,1.33136638998985,"Zero",-3,-1
302,"Juror","group",40,4.8,"fair",3,0,0.986518824996892,"Three",1,-1
302,"Juror","group",41,4.8,"fair",4,0,1.54892054400989,"Four",3,-1
302,"Juror","group",42,3,"amb",1,0,1.51160181799787,"One",-1,0
302,"Juror","group",43,0.4,"unfair",2,1,1.47156493598595,"Two",0,1
302,"Juror","group",44,2.7,"amb",2,0,1.14460931002395,"Two",0,0
302,"Juror","group",45,1.1,"unfair",1,1,2.20553070498863,"One",-1,1
302,"Juror","group",46,2.2,"amb",1,0,1.20143567601917,"One",-1,0
302,"Juror","group",47,2.8,"amb",2,0,1.72569646098418,"Two",0,0
302,"Juror","group",48,3.7,"fair",0,0,1.2057312290126,"Zero",-3,-1
302,"Juror","group",49,0.300000000000001,"unfair",4,1,0.935111311002402,"Four",3,1
302,"Juror","group",50,0.300000000000001,"unfair",2,1,1.35344761700253,"Two",0,1
302,"Juror","group",51,0.300000000000001,"unfair",4,1,1.35163014498539,"Four",3,1
302,"Juror","group",52,4,"fair",2,0,0.964569411997218,"Two",0,-1
302,"Juror","group",53,2.2,"amb",0,0,1.06195681000827,"Zero",-3,0
302,"Juror","group",54,3.8,"fair",3,0,0.822325530985836,"Three",1,-1
302,"Juror","alone",55,0.199999999999999,"unfair",NA,1,0.871112586988602,"Alone",NA,1
302,"Juror","group",56,0.0999999999999996,"unfair",3,1,0.883566424017772,"Three",1,1
302,"Juror","group",57,1.1,"unfair",2,0,1.17501164399437,"Two",0,1
302,"Juror","group",58,0.699999999999999,"unfair",3,1,1.14473963101045,"Three",1,1
302,"Juror","group",59,4.8,"fair",3,0,0.791676728986204,"Three",1,-1
302,"Juror","group",60,0.6,"unfair",2,1,0.963800142984837,"Two",0,1
302,"Juror","group",61,4.2,"fair",3,0,0.755515797005501,"Three",1,-1
302,"Juror","group",62,0.6,"unfair",4,1,1.77888551700744,"Four",3,1
302,"Juror","group",63,0.800000000000001,"unfair",1,1,1.28850137902191,"One",-1,1
302,"Juror","group",64,1.3,"unfair",0,0,2.02443989398307,"Zero",-3,1
302,"Juror","group",65,2.6,"amb",2,0,2.2629249849997,"Two",0,0
302,"Juror","group",66,0.6,"unfair",0,1,0.648736967006698,"Zero",-3,1
302,"Juror","group",67,2,"amb",4,0,1.35187175299507,"Four",3,0
302,"Juror","group",68,0.300000000000001,"unfair",3,1,0.901194819016382,"Three",1,1
302,"Juror","group",69,2.7,"amb",4,0,0.87638905501808,"Four",3,0
302,"Juror","group",70,1,"unfair",1,1,0.924965804995736,"One",-1,1
302,"Juror","group",71,4.4,"fair",1,0,0.904723415005719,"One",-1,-1
302,"Juror","alone",72,0.300000000000001,"unfair",NA,1,0.999938166991342,"Alone",NA,1
302,"Juror","alone",73,4.6,"fair",NA,0,1.02638899697922,"Alone",NA,-1
302,"Juror","group",74,4.2,"fair",3,0,1.05916942001204,"Three",1,-1
302,"Juror","group",75,4.7,"fair",1,0,0.93473994199303,"One",-1,-1
302,"Juror","group",76,4.5,"fair",3,0,0.916048023995245,"Three",1,-1
302,"Juror","group",77,2.5,"amb",1,0,2.07616128798691,"One",-1,0
302,"Juror","group",78,1,"unfair",1,1,1.11106897800346,"One",-1,1
302,"Juror","group",79,0.4,"unfair",0,1,0.898980944009963,"Zero",-3,1
302,"Juror","group",80,3.1,"amb",4,0,1.11081796401413,"Four",3,0
302,"Juror","group",81,4.6,"fair",0,0,1.94394474700675,"Zero",-3,-1
302,"Juror","group",82,4,"fair",4,0,1.17505085497396,"Four",3,-1
302,"Juror","group",83,4.3,"fair",4,0,0.73337703497964,"Four",3,-1
302,"Juror","group",84,0.699999999999999,"unfair",1,1,0.965255209011957,"One",-1,1
302,"Juror","group",85,2.8,"amb",0,0,1.51282064401312,"Zero",-3,0
302,"Juror","group",86,3.9,"fair",3,0,2.11203150299843,"Three",1,-1
302,"Juror","group",87,3.1,"amb",0,0,1.15403468499426,"Zero",-3,0
302,"Juror","group",88,4.3,"fair",1,0,0.701835300016683,"One",-1,-1
302,"Juror","group",89,3.7,"fair",1,0,0.797156204003841,"One",-1,-1
302,"Juror","group",90,4.4,"fair",1,0,0.637134320015321,"One",-1,-1
302,"Juror","alone",91,0.6,"unfair",NA,1,1.07089195400476,"Alone",NA,1
302,"Juror","group",92,4,"fair",0,0,0.928756520996103,"Zero",-3,-1
302,"Juror","group",93,3,"amb",0,0,0.650645175017416,"Zero",-3,0
302,"Juror","group",94,4,"fair",0,0,0.837779349007178,"Zero",-3,-1
302,"Juror","group",95,3.9,"fair",2,0,1.23062561597908,"Two",0,-1
302,"Juror","group",96,2.6,"amb",1,0,0.811388467001962,"One",-1,0
302,"Juror","group",97,2.6,"amb",4,0,0.775727550993906,"Four",3,0
302,"Juror","group",98,0.9,"unfair",4,1,0.87071450901567,"Four",3,1
302,"Juror","group",99,0.4,"unfair",2,1,0.986901538009988,"Two",0,1
302,"Juror","group",100,1.9,"amb",1,0,3.07672770699719,"One",-1,0
302,"Juror","group",101,0.300000000000001,"unfair",1,1,1.12972850000369,"One",-1,1
302,"Juror","group",102,2.7,"amb",2,0,0.886567719979212,"Two",0,0
302,"Juror","group",103,0.199999999999999,"unfair",0,1,0.929683541005943,"Zero",-3,1
302,"Juror","group",104,4.3,"fair",4,0,1.27970883098897,"Four",3,-1
302,"Juror","group",105,3.8,"fair",0,0,0.807006785005797,"Zero",-3,-1
302,"Juror","group",106,4.8,"fair",4,0,0.733052983996458,"Four",3,-1
302,"Juror","alone",107,1.1,"unfair",NA,0,0.841311025025789,"Alone",NA,1
302,"Juror","group",108,2.3,"amb",2,0,0.700899646006292,"Two",0,0
302,"Juror","group",109,4,"fair",0,0,1.19812754000304,"Zero",-3,-1
302,"Juror","group",110,4.1,"fair",2,0,0.725833488017088,"Two",0,-1
302,"Juror","group",111,0.6,"unfair",0,1,0.946873957989737,"Zero",-3,1
302,"Juror","group",112,2.9,"amb",1,0,0.790078720019665,"One",-1,0
302,"Juror","group",113,4.9,"fair",4,0,1.40936552701169,"Four",3,-1
302,"Juror","group",114,1.2,"unfair",4,1,1.03794849899714,"Four",3,1
302,"Juror","group",115,0.300000000000001,"unfair",1,1,1.03216725599486,"One",-1,1
302,"Juror","group",116,4.2,"fair",4,0,0.804516617004992,"Four",3,-1
302,"Juror","group",117,3.9,"fair",2,0,0.890089749998879,"Two",0,-1
302,"Juror","group",118,0.6,"unfair",2,1,0.656484220002312,"Two",0,1
302,"Juror","group",119,1.1,"unfair",3,1,3.08768552500987,"Three",1,1
302,"Juror","group",120,4.3,"fair",4,0,1.13382342099794,"Four",3,-1
302,"Juror","group",121,3,"amb",3,0,1.63495043499279,"Three",1,0
302,"Juror","group",122,0.9,"unfair",0,1,0.793701166985556,"Zero",-3,1
302,"Juror","group",123,2.7,"amb",4,0,1.04185942900949,"Four",3,0
302,"Juror","group",124,1.1,"unfair",4,0,1.07056073800777,"Four",3,1
302,"Juror","group",125,3.8,"fair",4,0,1.45105543397949,"Four",3,-1
302,"Juror","group",126,2.3,"amb",4,0,1.95419578699511,"Four",3,0
302,"Juror","group",127,0.9,"unfair",2,1,1.34175607500947,"Two",0,1
302,"Juror","group",128,4.4,"fair",0,0,1.33059772098204,"Zero",-3,-1
302,"Juror","group",129,2,"amb",2,0,1.3682963430183,"Two",0,0
302,"Juror","group",130,4.8,"fair",3,0,2.3186916509876,"Three",1,-1
302,"Juror","group",131,0.5,"unfair",3,1,3.12740128999576,"Three",1,1
302,"Juror","group",132,0.800000000000001,"unfair",3,1,3.2448297010269,"Three",1,1
302,"Juror","alone",133,1.2,"unfair",NA,0,1.28620098298416,"Alone",NA,1
302,"Juror","group",134,2,"amb",3,0,2.17459830601001,"Three",1,0
302,"Juror","group",135,1,"unfair",0,1,0.653165004012408,"Zero",-3,1
302,"Juror","group",136,2.5,"amb",0,0,0.830843825999182,"Zero",-3,0
302,"Juror","group",137,4.5,"fair",1,0,1.11873885701061,"One",-1,-1
302,"Juror","group",138,1.9,"amb",2,0,0.680788988014683,"Two",0,0
302,"Juror","group",139,2,"amb",0,0,0.647835510986624,"Zero",-3,0
302,"Juror","group",140,3.8,"fair",4,0,0.77173380900058,"Four",3,-1
302,"Juror","group",141,0.699999999999999,"unfair",4,0,1.08088025700999,"Four",3,1
302,"Juror","group",142,2.7,"amb",2,0,1.25733939599013,"Two",0,0
302,"Juror","alone",143,2.8,"amb",NA,0,3.56219399400288,"Alone",NA,0
302,"Juror","alone",144,2.5,"amb",NA,0,0.789018565992592,"Alone",NA,0
302,"Juror","alone",145,2.7,"amb",NA,0,0.478138539998326,"Alone",NA,0
302,"Juror","group",146,2.6,"amb",2,0,1.13923135699588,"Two",0,0
302,"Juror","group",147,3.8,"fair",1,0,0.957627426018007,"One",-1,-1
302,"Juror","group",148,4.6,"fair",1,0,0.562396049994277,"One",-1,-1
302,"Juror","group",149,0.800000000000001,"unfair",0,0,0.673884347022977,"Zero",-3,1
302,"Juror","alone",150,4.2,"fair",NA,0,0.847596895007882,"Alone",NA,-1
302,"Juror","group",151,4.7,"fair",3,0,2.69775518300594,"Three",1,-1
302,"Juror","group",152,4.9,"fair",4,0,1.43818635598291,"Four",3,-1
302,"Juror","group",153,1.1,"unfair",0,0,1.40984047998791,"Zero",-3,1
302,"Juror","group",154,3.7,"fair",0,0,1.03852802299662,"Zero",-3,-1
302,"Juror","group",155,0.4,"unfair",2,0,2.36109095599386,"Two",0,1
302,"Juror","group",156,4,"fair",3,0,3.88315079198219,"Three",1,-1
302,"Juror","group",157,1.2,"unfair",1,1,3.82251425599679,"One",-1,1
302,"Juror","group",159,4.4,"fair",1,0,0.81855186301982,"One",-1,-1
302,"Juror","group",160,2.2,"amb",1,0,0.625295620993711,"One",-1,0
302,"Juror","group",161,4.8,"fair",1,0,1.08102043400868,"One",-1,-1
302,"Juror","group",162,4.7,"fair",2,0,0.744836442987435,"Two",0,-1
302,"Juror","group",163,1.9,"amb",2,1,0.794213974993909,"Two",0,0
302,"Juror","group",164,2.1,"amb",3,0,0.534961059020134,"Three",1,0
302,"Juror","group",165,2.7,"amb",2,0,1.93137187999673,"Two",0,0
302,"Juror","alone",166,2,"amb",NA,0,0.941847149020759,"Alone",NA,0
302,"Juror","group",167,2.4,"amb",2,0,0.776093005988514,"Two",0,0
302,"Juror","group",168,2.7,"amb",4,0,0.686089444992831,"Four",3,0
302,"Juror","group",169,1,"unfair",1,1,1.13066290100687,"One",-1,1
302,"Juror","group",170,0.699999999999999,"unfair",3,1,1.01760629197815,"Three",1,1
302,"Juror","group",171,2.7,"amb",4,0,0.681167810980696,"Four",3,0
302,"Juror","group",172,1.1,"unfair",3,0,0.70568692102097,"Three",1,1
302,"Juror","group",173,2.4,"amb",4,0,0.656300565024139,"Four",3,0
302,"Juror","group",174,2.6,"amb",3,0,0.606789924000623,"Three",1,0
302,"Juror","group",175,3,"amb",0,0,1.20958330799476,"Zero",-3,0
302,"Juror","group",176,1,"unfair",3,1,1.44229471302242,"Three",1,1
302,"Juror","group",177,2.7,"amb",0,0,1.08518195699435,"Zero",-3,0
302,"Juror","group",178,0.800000000000001,"unfair",3,1,1.19316161700408,"Three",1,1
302,"Juror","group",179,4.8,"fair",2,0,0.911261759989429,"Two",0,-1
302,"Juror","group",180,4.2,"fair",0,0,0.717769053997472,"Zero",-3,-1
302,"Juror","group",181,1.2,"unfair",1,0,1.71405132400105,"One",-1,1
302,"Juror","group",182,1.2,"unfair",4,0,0.656870292994427,"Four",3,1
302,"Juror","group",183,4.1,"fair",3,0,0.547203178022755,"Three",1,-1
302,"Juror","group",184,3,"amb",3,0,0.532387214974733,"Three",1,0
302,"Juror","group",185,2,"amb",4,0,0.698268720996566,"Four",3,0
302,"Juror","group",186,0.300000000000001,"unfair",2,1,0.972722044010879,"Two",0,1
302,"Juror","group",187,0.4,"unfair",3,1,1.26190555799985,"Three",1,1
302,"Juror","group",188,4.7,"fair",2,1,0.543491179996636,"Two",0,-1
302,"Juror","group",189,1.1,"unfair",3,0,0.990397225017659,"Three",1,1
302,"Juror","group",190,4.1,"fair",2,0,0.682286482013296,"Two",0,-1
302,"Juror","alone",191,3.8,"fair",NA,0,0.781893942010356,"Alone",NA,-1
302,"Juror","group",192,0.4,"unfair",0,1,1.01855488601723,"Zero",-3,1
302,"Juror","alone",193,0.6,"unfair",NA,1,0.792147361004027,"Alone",NA,1
302,"Juror","group",194,1.9,"amb",1,0,0.815488177991938,"One",-1,0
302,"Juror","group",195,2.8,"amb",1,0,0.634664512996096,"One",-1,0
302,"Juror","group",196,2.7,"amb",4,0,0.650774770998396,"Four",3,0
302,"Juror","group",197,1.2,"unfair",1,0,1.30919546802761,"One",-1,1
302,"Juror","alone",198,2.1,"amb",NA,0,0.769511307007633,"Alone",NA,0
302,"Juror","alone",199,3,"amb",NA,0,0.413135765003972,"Alone",NA,0
302,"Juror","group",200,1.1,"unfair",3,0,0.711703918001149,"Three",1,1
302,"Juror","group",201,0.4,"unfair",0,1,1.24562790000346,"Zero",-3,1
302,"Juror","group",202,4.9,"fair",3,0,0.759614897979191,"Three",1,-1
302,"Juror","group",203,4.5,"fair",3,0,1.03964003801229,"Three",1,-1
302,"Juror","alone",204,0.5,"unfair",NA,1,0.863086306984769,"Alone",NA,1
302,"Juror","group",205,4,"fair",2,0,1.04430930799572,"Two",0,-1
302,"Juror","group",206,4.2,"fair",2,0,1.01496247400064,"Two",0,-1
302,"Juror","group",207,4.2,"fair",4,0,1.00956081401091,"Four",3,-1
302,"Juror","group",208,3.1,"amb",1,0,0.920565998996608,"One",-1,0
302,"Juror","group",209,4.8,"fair",2,0,0.705603688984411,"Two",0,-1
302,"Juror","group",210,1.9,"amb",4,0,0.788142944977153,"Four",3,0
302,"Juror","group",211,3.9,"fair",4,0,1.34085512300953,"Four",3,-1
302,"Juror","group",212,0.6,"unfair",4,1,1.28536865900969,"Four",3,1
302,"Juror","group",213,2.2,"amb",3,0,3.55028800998116,"Three",1,0
302,"Juror","group",214,4.4,"fair",1,0,0.831982705014525,"One",-1,-1
302,"Juror","group",215,0.9,"unfair",0,1,0.827643261989579,"Zero",-3,1
302,"Juror","group",216,2.4,"amb",0,0,0.747925828007283,"Zero",-3,0
302,"Juror","group",217,3.1,"amb",0,0,0.852954742003931,"Zero",-3,0
302,"Juror","group",218,4.5,"fair",4,0,1.14911659699283,"Four",3,-1
302,"Juror","group",219,0.6,"unfair",3,1,1.27196052399813,"Three",1,1
302,"Juror","group",220,1.9,"amb",2,0,1.05768859598902,"Two",0,0
302,"Juror","group",221,2,"amb",1,0,1.10665588398115,"One",-1,0
302,"Juror","group",222,2.7,"amb",0,0,2.90275606801151,"Zero",-3,0
302,"Juror","group",223,0.800000000000001,"unfair",0,1,1.06351510001696,"Zero",-3,1
302,"Juror","group",224,2.1,"amb",3,0,0.890633292001439,"Three",1,0
302,"Juror","group",225,1,"unfair",3,0,1.97606219199952,"Three",1,1
302,"Juror","group",226,1.2,"unfair",4,0,1.10308511299081,"Four",3,1
302,"Juror","group",227,1.3,"unfair",4,0,1.0435356030066,"Four",3,1
302,"Juror","group",228,2.2,"amb",3,0,0.648017464991426,"Three",1,0
302,"Juror","group",229,0.699999999999999,"unfair",4,1,0.820990158972563,"Four",3,1
302,"Juror","group",230,2.6,"amb",4,0,0.876093867002055,"Four",3,0
302,"Juror","group",231,1.1,"unfair",2,0,1.61156521498924,"Two",0,1
302,"Juror","group",232,4.5,"fair",4,0,1.10867807400064,"Four",3,-1
302,"Juror","group",233,4.3,"fair",0,0,0.750629198009847,"Zero",-3,-1
302,"Juror","group",234,3,"amb",3,0,0.703602605004562,"Three",1,0
302,"Juror","alone",235,4.4,"fair",NA,0,0.71322885499103,"Alone",NA,-1
302,"Juror","group",236,4.5,"fair",0,0,0.564720556983957,"Zero",-3,-1
302,"Juror","group",237,0.0999999999999996,"unfair",0,1,0.89027494500624,"Zero",-3,1
302,"Juror","alone",238,1.2,"unfair",NA,0,0.887281277973671,"Alone",NA,1
302,"Juror","alone",239,4.9,"fair",NA,0,0.658042498020222,"Alone",NA,-1
302,"Juror","group",240,4.8,"fair",1,0,0.728047504991991,"One",-1,-1
302,"Juror","group",241,2.2,"amb",3,0,0.758462253987091,"Three",1,0
302,"Juror","alone",242,3.7,"fair",NA,0,0.917293222009903,"Alone",NA,-1
302,"Juror","group",243,0.9,"unfair",0,1,0.728985932975775,"Zero",-3,1
302,"Juror","group",244,4,"fair",2,0,0.559240937000141,"Two",0,-1
302,"Juror","group",245,2.2,"amb",2,0,0.676648684981046,"Two",0,0
302,"Juror","group",246,3.1,"amb",0,0,0.993749009998282,"Zero",-3,0
302,"Juror","group",247,0.4,"unfair",3,0,1.02805180900032,"Three",1,1
302,"Juror","group",248,2.9,"amb",3,0,1.73999396900763,"Three",1,0
302,"Juror","group",249,4.8,"fair",1,0,2.04635684899404,"One",-1,-1
302,"Juror","group",250,4,"fair",2,0,2.26968415200827,"Two",0,-1
302,"Juror","group",251,4.7,"fair",2,0,0.839347075001569,"Two",0,-1
302,"Juror","group",252,0.4,"unfair",1,1,1.10722333300509,"One",-1,1
302,"Juror","group",253,0.4,"unfair",4,1,1.11681160199805,"Four",3,1
302,"Juror","group",254,4.4,"fair",2,0,1.03405281502637,"Two",0,-1
302,"Juror","alone",255,2.4,"amb",NA,0,1.19113608598127,"Alone",NA,0
302,"Juror","alone",256,4.7,"fair",NA,0,1.0106019199884,"Alone",NA,-1
302,"Juror","group",257,4.8,"fair",0,0,1.22613198199542,"Zero",-3,-1
302,"Juror","group",258,4.8,"fair",3,0,1.02194365201285,"Three",1,-1
302,"Juror","group",259,1.1,"unfair",1,0,1.23464030498872,"One",-1,1
302,"Juror","group",260,3,"amb",4,0,0.975733206985751,"Four",3,0
302,"Juror","group",261,2,"amb",3,0,0.974094109988073,"Three",1,0
302,"Juror","group",262,2.5,"amb",1,0,0.870464598992839,"One",-1,0
302,"Juror","alone",263,1.3,"unfair",NA,0,0.928928974986775,"Alone",NA,1
302,"Juror","group",264,3.8,"fair",2,0,0.849979976017494,"Two",0,-1
302,"Juror","group",265,0.4,"unfair",4,1,1.35039970697835,"Four",3,1
302,"Juror","group",266,2.4,"amb",1,0,2.4053684239916,"One",-1,0
302,"Juror","group",267,2.2,"amb",3,0,1.12562365600024,"Three",1,0
302,"Juror","group",268,0.6,"unfair",1,1,1.59849569198559,"One",-1,1
302,"Juror","group",269,4.2,"fair",2,0,1.34544954597368,"Two",0,-1
302,"Juror","group",270,2,"amb",2,0,1.47567299599177,"Two",0,0
302,"Juror","group",271,2.2,"amb",1,0,2.30837376601994,"One",-1,0
302,"Juror","group",272,3.9,"fair",2,0,0.779789040010655,"Two",0,-1
302,"Juror","group",273,0.199999999999999,"unfair",4,1,1.06961033400148,"Four",3,1
302,"Juror","group",274,2.8,"amb",3,0,0.967109054996399,"Three",1,0
302,"Juror","group",275,2.6,"amb",0,0,1.05098762200214,"Zero",-3,0
302,"Juror","group",276,4.6,"fair",4,0,0.866490560991224,"Four",3,-1
302,"Juror","group",277,4.8,"fair",3,0,0.968303970992565,"Three",1,-1
302,"Juror","alone",278,4.4,"fair",NA,0,1.03792215601425,"Alone",NA,-1
302,"Juror","group",279,3.8,"fair",4,0,1.04793771199184,"Four",3,-1
302,"Juror","group",280,4.4,"fair",2,0,0.788732496002922,"Two",0,-1
302,"Juror","group",282,2.4,"amb",1,0,0.459929470001953,"One",-1,0
302,"Juror","alone",283,4.4,"fair",NA,1,1.25378005998209,"Alone",NA,-1
302,"Juror","alone",284,2.4,"amb",NA,0,1.77004840000882,"Alone",NA,0
302,"Juror","group",285,2.6,"amb",1,0,1.30132458600565,"One",-1,0
302,"Juror","group",286,0.800000000000001,"unfair",0,1,0.8775223440025,"Zero",-3,1
302,"Juror","group",287,2.1,"amb",2,0,1.39266455799225,"Two",0,0
302,"Juror","group",288,3.9,"fair",3,0,1.37683226299123,"Three",1,-1
302,"Juror","group",289,0.800000000000001,"unfair",1,1,1.15410508497735,"One",-1,1
302,"Juror","group",290,0.800000000000001,"unfair",2,1,0.883112128009088,"Two",0,1
302,"Juror","group",291,4.9,"fair",2,0,1.55862000299385,"Two",0,-1
302,"Juror","group",292,0.800000000000001,"unfair",1,0,1.41718433401547,"One",-1,1
302,"Juror","group",293,0.5,"unfair",1,0,1.41164622100769,"One",-1,1
302,"Juror","group",294,4.9,"fair",1,0,1.15359040600015,"One",-1,-1
302,"Juror","group",295,0.6,"unfair",1,1,0.836320250004064,"One",-1,1
302,"Juror","alone",296,1.9,"amb",NA,0,1.01391109498218,"Alone",NA,0
302,"Juror","group",297,2,"amb",2,0,0.737497414986137,"Two",0,0
302,"Juror","alone",298,3.7,"fair",NA,0,1.62689991501975,"Alone",NA,-1
302,"Juror","group",299,1.2,"unfair",2,1,1.07294808802544,"Two",0,1
302,"Juror","group",300,0.699999999999999,"unfair",3,0,0.739798246999271,"Three",1,1
302,"Juror","group",301,2.8,"amb",0,0,0.678541875007795,"Zero",-3,0
302,"Juror","alone",302,2.2,"amb",NA,0,1.5051065160078,"Alone",NA,0
302,"Juror","group",303,0.699999999999999,"unfair",0,1,0.913110926019726,"Zero",-3,1
302,"Juror","group",304,3.1,"amb",4,0,0.840101448993664,"Four",3,0
302,"Juror","group",305,3.9,"fair",2,0,1.74785895401146,"Two",0,-1
302,"Juror","group",306,3.8,"fair",0,0,0.624629542027833,"Zero",-3,-1
302,"Juror","group",307,2.1,"amb",3,0,0.62610496301204,"Three",1,0
302,"Juror","group",308,0.6,"unfair",0,1,0.75748701998964,"Zero",-3,1
302,"Juror","group",309,3.9,"fair",0,0,1.013955678005,"Zero",-3,-1
302,"Juror","alone",310,4,"fair",NA,0,0.673601845977828,"Alone",NA,-1
302,"Juror","alone",311,2.3,"amb",NA,0,0.697345086984569,"Alone",NA,0
302,"Juror","group",312,2.9,"amb",3,0,0.908485832012957,"Three",1,0
302,"Juror","alone",313,0.4,"unfair",NA,1,0.858475857006852,"Alone",NA,1
302,"Juror","group",314,0.0999999999999996,"unfair",0,1,0.760797149006976,"Zero",-3,1
302,"Juror","group",315,4.7,"fair",3,0,0.705552507017273,"Three",1,-1
302,"Juror","group",316,4.8,"fair",0,0,1.1006923050154,"Zero",-3,-1
302,"Juror","group",317,0.5,"unfair",2,1,1.03336779700476,"Two",0,1
302,"Juror","group",318,0.199999999999999,"unfair",4,1,1.10810865298845,"Four",3,1
302,"Juror","group",319,3.8,"fair",0,0,1.38960989497718,"Zero",-3,-1
302,"Juror","group",320,0.300000000000001,"unfair",4,1,1.36203907197341,"Four",3,1
302,"Juror","group",321,0.4,"unfair",2,1,1.06616392399883,"Two",0,1
302,"Juror","group",322,2.6,"amb",2,0,0.829427079006564,"Two",0,0
302,"Juror","group",323,3.7,"fair",3,0,0.834739650017582,"Three",1,-1
302,"Juror","alone",324,3.9,"fair",NA,0,1.27894442001707,"Alone",NA,-1
302,"Juror","group",325,4,"fair",3,0,0.690305275988067,"Three",1,-1
302,"Juror","group",326,0.4,"unfair",1,0,0.602954381989548,"One",-1,1
302,"Juror","group",327,2.7,"amb",3,0,0.912884899007622,"Three",1,0
302,"Juror","group",328,3.9,"fair",0,0,0.766406402020948,"Zero",-3,-1
302,"Juror","group",329,2.1,"amb",0,0,0.744430719001684,"Zero",-3,0
302,"Juror","group",330,0.4,"unfair",1,1,0.79509636000148,"One",-1,1
302,"Juror","group",331,0.199999999999999,"unfair",0,1,0.83164709500852,"Zero",-3,1
302,"Juror","group",332,2.9,"amb",2,0,0.573568891995819,"Two",0,0
302,"Juror","group",333,0.699999999999999,"unfair",1,1,0.60382972098887,"One",-1,1
302,"Juror","group",334,0.199999999999999,"unfair",2,1,1.24660150898853,"Two",0,1
302,"Juror","group",335,2.2,"amb",4,0,0.969254145980813,"Four",3,0
302,"Juror","group",336,1.1,"unfair",0,1,1.40469321902492,"Zero",-3,1
302,"Juror","group",337,1.2,"unfair",3,1,1.25970468399464,"Three",1,1
302,"Juror","group",338,2.9,"amb",4,0,1.83008566900389,"Four",3,0
302,"Juror","group",339,4.4,"fair",1,0,1.35359807597706,"One",-1,-1
302,"Juror","group",340,1.1,"unfair",2,0,1.16729030499118,"Two",0,1
302,"Juror","group",341,2.4,"amb",3,0,1.49435515399091,"Three",1,0
302,"Juror","group",342,0.300000000000001,"unfair",4,1,1.1241352269717,"Four",3,1
302,"Juror","group",343,2.2,"amb",3,0,1.0789519379905,"Three",1,0
302,"Juror","group",344,3.1,"amb",1,0,0.847885639988817,"One",-1,0
302,"Juror","group",345,2.7,"amb",3,0,0.670931213011499,"Three",1,0
302,"Juror","group",346,0.800000000000001,"unfair",4,1,1.66577888498432,"Four",3,1
302,"Juror","alone",347,3.1,"amb",NA,0,0.70588554799906,"Alone",NA,0
302,"Juror","group",348,1.3,"unfair",2,0,0.704392674990231,"Two",0,1
302,"Juror","group",349,2.1,"amb",0,0,0.802038997004274,"Zero",-3,0
302,"Juror","group",350,3.8,"fair",2,0,0.992057894007303,"Two",0,-1
302,"Juror","group",351,0.199999999999999,"unfair",1,1,0.673761348996777,"One",-1,1
302,"Juror","group",352,3.9,"fair",1,0,0.725673124019522,"One",-1,-1
302,"Juror","group",353,1,"unfair",2,1,0.538190059014596,"Two",0,1
302,"Juror","group",354,0.800000000000001,"unfair",1,1,0.575323138007661,"One",-1,1
302,"Juror","group",355,3.1,"amb",0,0,0.60313179800869,"Zero",-3,0
302,"Juror","group",356,0.5,"unfair",2,1,0.557002244982868,"Two",0,1
302,"Juror","group",357,2,"amb",0,0,0.523131677997299,"Zero",-3,0
302,"Juror","group",358,4.5,"fair",2,0,0.374130912998226,"Two",0,-1
302,"Juror","group",359,3.9,"fair",0,0,0.436772698012646,"Zero",-3,-1
302,"Juror","group",360,2.4,"amb",0,0,0.631627080001635,"Zero",-3,0
302,"Juror","group",362,4.6,"fair",1,0,0.431768857000861,"One",-1,-1
302,"Juror","group",363,2.3,"amb",4,0,0.363835750991711,"Four",3,0
302,"Juror","group",364,1.2,"unfair",0,0,0.508320991997607,"Zero",-3,1
302,"Juror","group",365,2,"amb",2,0,0.446810271008871,"Two",0,0
302,"Juror","group",366,1.1,"unfair",4,0,0.447084243001882,"Four",3,1
302,"Juror","group",367,3.7,"fair",0,0,0.512182294012746,"Zero",-3,-1
302,"Juror","alone",368,1,"unfair",NA,1,0.497194020019379,"Alone",NA,1
302,"Juror","group",369,3.8,"fair",4,0,0.480730292998487,"Four",3,-1
302,"Juror","group",370,2.1,"amb",0,0,0.558953558007488,"Zero",-3,0
302,"Juror","group",371,4.1,"fair",1,0,0.479935716022737,"One",-1,-1
302,"Juror","group",372,2,"amb",4,0,0.371628583001439,"Four",3,0
302,"Juror","group",374,1.1,"unfair",0,0,0.31460839198553,"Zero",-3,1
302,"Juror","group",376,0.300000000000001,"unfair",1,0,0.307896665995941,"One",-1,1
302,"Juror","group",377,2.1,"amb",3,0,0.457795408990933,"Three",1,0
302,"Juror","group",380,4.5,"fair",1,0,0.421394809993217,"One",-1,-1
302,"Juror","alone",381,2.2,"amb",NA,0,0.441958503011847,"Alone",NA,0
302,"Juror","group",382,0.699999999999999,"unfair",2,1,0.547935160982888,"Two",0,1
302,"Juror","group",383,2,"amb",1,0,0.682947543013142,"One",-1,0
302,"Juror","group",384,2.4,"amb",2,0,0.684731187007856,"Two",0,0
302,"Juror","group",385,4.5,"fair",0,0,0.62505478298408,"Zero",-3,-1
302,"Juror","group",386,1,"unfair",4,1,0.621745043987175,"Four",3,1
302,"Juror","group",387,1.9,"amb",1,0,1.06636027700733,"One",-1,0
302,"Juror","group",388,0.5,"unfair",4,1,1.06754622899462,"Four",3,1
302,"Juror","group",389,2.3,"amb",3,0,0.641479851998156,"Three",1,0
302,"Juror","group",390,2.1,"amb",2,0,1.274098622991,"Two",0,0
302,"Juror","group",391,0.6,"unfair",0,1,1.0147168529802,"Zero",-3,1
302,"Juror","group",392,3,"amb",4,0,1.33367228301358,"Four",3,0
302,"Juror","group",393,0.300000000000001,"unfair",4,1,1.19320921300096,"Four",3,1
302,"Juror","group",394,0.6,"unfair",3,1,0.947986296989257,"Three",1,1
302,"Juror","group",395,2.4,"amb",4,0,0.848548475012649,"Four",3,0
302,"Juror","group",396,2.5,"amb",0,0,0.84884927800158,"Zero",-3,0
302,"Juror","group",397,2.7,"amb",1,0,0.478353470010916,"One",-1,0
302,"Juror","group",398,0.9,"unfair",2,0,0.668732846999774,"Two",0,1
302,"Juror","group",399,0.300000000000001,"unfair",3,1,0.52666651099571,"Three",1,1
302,"Juror","group",400,3.8,"fair",1,0,0.839627271023346,"One",-1,-1
302,"Juror","group",401,2.7,"amb",2,0,1.6387773870083,"Two",0,0
302,"Juror","group",402,2.5,"amb",1,0,1.01873376499861,"One",-1,0
302,"Juror","group",403,1.1,"unfair",2,0,0.768921105016489,"Two",0,1
302,"Juror","group",404,3.9,"fair",2,0,0.638747509015957,"Two",0,-1
302,"Juror","group",405,0.4,"unfair",3,1,0.747873635002179,"Three",1,1
302,"Juror","group",406,4.7,"fair",3,0,0.533480426005553,"Three",1,-1
302,"Juror","group",407,4.8,"fair",4,0,0.787723153014667,"Four",3,-1
302,"Juror","group",408,4.4,"fair",3,0,4.00868593901396,"Three",1,-1
302,"Juror","group",409,4.2,"fair",3,0,1.29468289401848,"Three",1,-1
302,"Juror","group",410,2.6,"amb",3,0,1.17296288799844,"Three",1,0
302,"Juror","group",411,0.4,"unfair",2,1,0.747628872020869,"Two",0,1
302,"Juror","group",412,2,"amb",0,0,0.676078820019029,"Zero",-3,0
302,"Juror","group",413,4.4,"fair",0,0,1.59888735797722,"Zero",-3,-1
302,"Juror","group",414,3.7,"fair",1,0,0.6373274110083,"One",-1,-1
302,"Juror","group",415,3.8,"fair",1,0,0.684209975006524,"One",-1,-1
302,"Juror","group",416,4.2,"fair",1,0,0.878806325985352,"One",-1,-1
302,"Juror","group",417,4.5,"fair",4,0,0.650706333020935,"Four",3,-1
302,"Juror","group",418,4.4,"fair",3,0,0.494730889011407,"Three",1,-1
302,"Juror","group",419,0.800000000000001,"unfair",4,1,0.880619900999591,"Four",3,1
302,"Juror","group",420,2.4,"amb",4,0,0.976450333022512,"Four",3,0
302,"Juror","group",421,2.2,"amb",4,0,0.61692070600111,"Four",3,0
302,"Juror","group",422,4.7,"fair",4,0,0.716277989995433,"Four",3,-1
302,"Juror","alone",423,4,"fair",NA,0,0.606868428003509,"Alone",NA,-1
302,"Juror","group",424,2.5,"amb",3,0,0.751288626983296,"Three",1,0
302,"Juror","group",425,2.6,"amb",4,0,0.62541382299969,"Four",3,0
302,"Juror","group",426,3.8,"fair",0,0,0.942289011989487,"Zero",-3,-1
302,"Juror","group",427,2.4,"amb",3,0,1.00304235701333,"Three",1,0
302,"Juror","group",428,4.4,"fair",0,0,1.5200742490124,"Zero",-3,-1
302,"Juror","group",429,4.7,"fair",4,0,2.05826148900087,"Four",3,-1
302,"Juror","group",430,4.1,"fair",2,0,1.56913102898397,"Two",0,-1
302,"Juror","group",431,2.6,"amb",2,0,1.10740791301941,"Two",0,0
302,"Juror","group",432,2.5,"amb",1,0,0.945054720010376,"One",-1,0
302,"Juror","alone",433,0.199999999999999,"unfair",NA,1,2.09446236601798,"Alone",NA,1
302,"Juror","group",434,2,"amb",4,0,1.84237537399167,"Four",3,0
302,"Juror","alone",435,3.8,"fair",NA,0,0.88430396100739,"Alone",NA,-1
302,"Juror","group",436,1.1,"unfair",2,0,0.908971786004258,"Two",0,1
302,"Juror","group",437,4.6,"fair",0,0,0.676738628011663,"Zero",-3,-1
302,"Juror","alone",438,3.8,"fair",NA,0,0.75999915698776,"Alone",NA,-1
302,"Juror","group",439,1.2,"unfair",3,0,1.19080141300219,"Three",1,1
302,"Juror","group",441,4.2,"fair",3,0,0.405381248012418,"Three",1,-1
302,"Juror","group",442,2.8,"amb",1,0,0.869592508999631,"One",-1,0
302,"Juror","group",443,2.1,"amb",1,0,0.63998393699876,"One",-1,0
302,"Juror","alone",445,0.5,"unfair",NA,1,0.965346254990436,"Alone",NA,1
302,"Juror","group",446,2.3,"amb",1,0,0.993813109002076,"One",-1,0
302,"Juror","group",447,4.6,"fair",1,0,1.05635639998945,"One",-1,-1
302,"Juror","group",448,3.8,"fair",4,0,1.31995612499304,"Four",3,-1
302,"Juror","group",449,4.1,"fair",1,0,0.891518037009519,"One",-1,-1
302,"Juror","group",450,0.199999999999999,"unfair",0,1,1.69363561700447,"Zero",-3,1
303,"Juror","group",31,4.2,"fair",4,0,4.21339671101305,"Four",3,-1
303,"Juror","group",32,4.1,"fair",0,0,1.3560289919842,"Zero",-3,-1
303,"Juror","group",33,4.5,"fair",3,0,1.29607119399589,"Three",1,-1
303,"Juror","group",34,2.1,"amb",2,0,2.26317627998651,"Two",0,0
303,"Juror","group",35,4.7,"fair",4,0,1.34394511999562,"Four",3,-1
303,"Juror","group",36,0.0999999999999996,"unfair",0,0,1.74309886901756,"Zero",-3,1
303,"Juror","group",37,3.8,"fair",4,0,0.850175909989048,"Four",3,-1
303,"Juror","group",38,3,"amb",0,0,1.38478319600108,"Zero",-3,0
303,"Juror","group",39,4.3,"fair",1,0,0.8409735239984,"One",-1,-1
303,"Juror","alone",40,2.3,"amb",NA,0,2.02501012702123,"Alone",NA,0
303,"Juror","group",41,1.9,"amb",3,1,2.17861392302439,"Three",1,0
303,"Juror","group",43,3.1,"amb",1,0,1.30155724001816,"One",-1,0
303,"Juror","group",44,0.199999999999999,"unfair",4,1,2.42755324402242,"Four",3,1
303,"Juror","group",45,0.5,"unfair",1,1,3.57048370299162,"One",-1,1
303,"Juror","group",46,0.5,"unfair",0,1,1.74118651801837,"Zero",-3,1
303,"Juror","group",47,0.300000000000001,"unfair",4,1,2.10621863900451,"Four",3,1
303,"Juror","alone",48,2.7,"amb",NA,0,1.20418799002073,"Alone",NA,0
303,"Juror","alone",49,1.1,"unfair",NA,0,1.29062530800002,"Alone",NA,1
303,"Juror","group",50,0.4,"unfair",1,0,1.83073334299843,"One",-1,1
303,"Juror","group",51,3.9,"fair",4,0,1.11701540299691,"Four",3,-1
303,"Juror","group",52,1.3,"unfair",3,0,1.15481301199179,"Three",1,1
303,"Juror","group",53,4,"fair",2,0,0.909450430015568,"Two",0,-1
303,"Juror","group",54,4.8,"fair",4,0,0.836056625004858,"Four",3,-1
303,"Juror","group",55,3,"amb",2,0,3.43376254700706,"Two",0,0
303,"Juror","group",56,1.2,"unfair",4,0,2.42234611700405,"Four",3,1
303,"Juror","group",57,2.4,"amb",0,0,1.63602482600254,"Zero",-3,0
303,"Juror","group",58,3,"amb",0,0,2.05762923698057,"Zero",-3,0
303,"Juror","group",59,0.199999999999999,"unfair",4,1,1.56373605399858,"Four",3,1
303,"Juror","alone",60,0.699999999999999,"unfair",NA,1,1.81867880301434,"Alone",NA,1
303,"Juror","group",61,1,"unfair",4,1,1.30635702001746,"Four",3,1
303,"Juror","group",63,0.6,"unfair",2,1,1.90742691000924,"Two",0,1
303,"Juror","group",64,4.1,"fair",4,0,0.853564299992286,"Four",3,-1
303,"Juror","group",65,3.1,"amb",4,0,0.835470944992267,"Four",3,0
303,"Juror","alone",66,0.4,"unfair",NA,1,1.99976106299437,"Alone",NA,1
303,"Juror","group",68,1,"unfair",2,1,1.32170594701893,"Two",0,1
303,"Juror","group",69,0.699999999999999,"unfair",4,1,1.15860960699501,"Four",3,1
303,"Juror","group",70,4.4,"fair",4,0,0.924198673979845,"Four",3,-1
303,"Juror","group",71,0.300000000000001,"unfair",2,1,1.93214640198858,"Two",0,1
303,"Juror","group",72,1,"unfair",2,1,0.939910614979453,"Two",0,1
303,"Juror","group",73,2.7,"amb",1,0,0.970073207980022,"One",-1,0
303,"Juror","group",74,2.9,"amb",1,0,0.881627772003412,"One",-1,0
303,"Juror","group",75,4.2,"fair",0,0,2.58730854198802,"Zero",-3,-1
303,"Juror","group",76,2.1,"amb",3,0,0.901132661994779,"Three",1,0
303,"Juror","group",78,4.5,"fair",1,0,1.88411184499273,"One",-1,-1
303,"Juror","group",79,2.9,"amb",1,0,0.727167018980253,"One",-1,0
303,"Juror","group",80,3.9,"fair",1,0,0.659000478015514,"One",-1,-1
303,"Juror","group",81,4.4,"fair",2,0,0.648895881982753,"Two",0,-1
303,"Juror","alone",82,2.8,"amb",NA,0,0.826341818989022,"Alone",NA,0
303,"Juror","group",83,4.9,"fair",3,0,0.847990695998305,"Three",1,-1
303,"Juror","group",84,2.3,"amb",0,0,1.09401777401217,"Zero",-3,0
303,"Juror","group",85,0.0999999999999996,"unfair",1,1,1.34397982302471,"One",-1,1
303,"Juror","group",86,2.1,"amb",3,0,1.18268639198504,"Three",1,0
303,"Juror","group",87,4.8,"fair",2,0,0.66375529099605,"Two",0,-1
303,"Juror","group",88,2,"amb",2,0,4.56210130700492,"Two",0,0
303,"Juror","group",89,2.5,"amb",4,0,2.56159260999993,"Four",3,0
303,"Juror","alone",90,0.4,"unfair",NA,1,1.08281318697846,"Alone",NA,1
303,"Juror","group",91,2.8,"amb",3,0,2.41985650800052,"Three",1,0
303,"Juror","group",92,2.3,"amb",1,0,0.964156476984499,"One",-1,0
303,"Juror","group",93,4.5,"fair",4,0,1.86304470099276,"Four",3,-1
303,"Juror","group",94,3.7,"fair",4,0,2.81667476298753,"Four",3,-1
303,"Juror","group",95,2.2,"amb",4,0,0.646379876998253,"Four",3,0
303,"Juror","group",96,0.699999999999999,"unfair",4,1,0.98528565900051,"Four",3,1
303,"Juror","group",97,3.9,"fair",4,0,0.676750939979684,"Four",3,-1
303,"Juror","alone",98,4.1,"fair",NA,0,1.72268954798346,"Alone",NA,-1
303,"Juror","group",99,3.8,"fair",0,0,1.66192381698056,"Zero",-3,-1
303,"Juror","group",101,0.699999999999999,"unfair",3,1,0.954971962986747,"Three",1,1
303,"Juror","group",102,0.0999999999999996,"unfair",0,1,1.37920613301685,"Zero",-3,1
303,"Juror","group",103,1.3,"unfair",3,1,1.32109809099347,"Three",1,1
303,"Juror","group",104,4.1,"fair",0,0,1.29873725300422,"Zero",-3,-1
303,"Juror","alone",105,0.800000000000001,"unfair",NA,1,3.63000608500442,"Alone",NA,1
303,"Juror","group",108,0.0999999999999996,"unfair",3,1,1.14398405401153,"Three",1,1
303,"Juror","group",109,2.8,"amb",3,0,2.96143703299458,"Three",1,0
303,"Juror","group",110,3.8,"fair",4,0,2.08864971902221,"Four",3,-1
303,"Juror","alone",111,4.4,"fair",NA,0,2.0698940299917,"Alone",NA,-1
303,"Juror","group",112,4.6,"fair",3,0,1.27290858398192,"Three",1,-1
303,"Juror","group",113,1.9,"amb",1,0,4.79549777699867,"One",-1,0
303,"Juror","group",114,2.8,"amb",2,0,2.45166218097438,"Two",0,0
303,"Juror","group",115,0.9,"unfair",2,1,2.13966833800077,"Two",0,1
303,"Juror","group",116,4.3,"fair",2,0,0.649882333003916,"Two",0,-1
303,"Juror","alone",117,4.5,"fair",NA,0,1.50186759600183,"Alone",NA,-1
303,"Juror","group",118,2.4,"amb",4,0,3.53417710302165,"Four",3,0
303,"Juror","group",119,2.8,"amb",4,0,0.909539349988336,"Four",3,0
303,"Juror","group",120,2.5,"amb",3,0,0.630560572986724,"Three",1,0
303,"Juror","group",121,0.800000000000001,"unfair",2,1,1.14718206899124,"Two",0,1
303,"Juror","group",122,4.6,"fair",1,0,0.887741481012199,"One",-1,-1
303,"Juror","group",124,0.800000000000001,"unfair",2,0,3.01551806300995,"Two",0,1
303,"Juror","group",125,0.699999999999999,"unfair",4,0,0.934310798009392,"Four",3,1
303,"Juror","alone",126,2.4,"amb",NA,0,0.616533376014559,"Alone",NA,0
303,"Juror","group",127,0.699999999999999,"unfair",3,0,0.584244654979557,"Three",1,1
303,"Juror","group",128,3,"amb",4,0,0.727703634998761,"Four",3,0
303,"Juror","group",129,2.9,"amb",3,0,1.05241518400726,"Three",1,0
303,"Juror","group",131,4.1,"fair",4,0,0.767815417988459,"Four",3,-1
303,"Juror","group",132,1,"unfair",2,1,1.21640041499631,"Two",0,1
303,"Juror","group",133,2.3,"amb",3,0,1.82201038798667,"Three",1,0
303,"Juror","alone",134,0.699999999999999,"unfair",NA,1,1.20431167600327,"Alone",NA,1
303,"Juror","group",135,4.5,"fair",1,0,1.07959227001993,"One",-1,-1
303,"Juror","group",136,4.7,"fair",2,0,1.73231653100811,"Two",0,-1
303,"Juror","group",138,2.2,"amb",3,0,2.35982970197801,"Three",1,0
303,"Juror","group",139,0.300000000000001,"unfair",0,0,2.88931283401325,"Zero",-3,1
303,"Juror","group",141,3.7,"fair",4,0,0.664535036979942,"Four",3,-1
303,"Juror","group",142,2.1,"amb",2,0,0.965346250013681,"Two",0,0
303,"Juror","group",143,2.3,"amb",4,0,0.742892901995219,"Four",3,0
303,"Juror","group",144,4.6,"fair",3,0,0.598667253012536,"Three",1,-1
303,"Juror","group",145,2.2,"amb",4,0,0.842148390016519,"Four",3,0
303,"Juror","alone",146,0.0999999999999996,"unfair",NA,1,1.02343008000753,"Alone",NA,1
303,"Juror","group",147,2.7,"amb",4,0,1.1180766299949,"Four",3,0
303,"Juror","group",148,2.7,"amb",3,0,0.939927255996736,"Three",1,0
303,"Juror","group",149,3.8,"fair",4,0,0.803211748978356,"Four",3,-1
303,"Juror","group",150,0.0999999999999996,"unfair",3,1,0.771306023991201,"Three",1,1
303,"Juror","group",151,3.8,"fair",0,0,0.646458364004502,"Zero",-3,-1
303,"Juror","group",152,0.699999999999999,"unfair",4,1,0.645760706014698,"Four",3,1
303,"Juror","group",153,4.5,"fair",4,0,0.631892970995978,"Four",3,-1
303,"Juror","group",154,4.3,"fair",3,0,1.13307708600769,"Three",1,-1
303,"Juror","group",155,4.7,"fair",2,0,0.723104245000286,"Two",0,-1
303,"Juror","group",156,4.1,"fair",3,0,1.08762591500999,"Three",1,-1
303,"Juror","group",157,0.800000000000001,"unfair",1,1,1.3549698079878,"One",-1,1
303,"Juror","group",158,4,"fair",3,1,1.18050042097457,"Three",1,-1
303,"Juror","group",159,0.6,"unfair",0,0,3.59699856501538,"Zero",-3,1
303,"Juror","group",160,0.699999999999999,"unfair",1,0,1.78028115801862,"One",-1,1
303,"Juror","group",161,1.2,"unfair",2,1,2.89333819501917,"Two",0,1
303,"Juror","group",162,4,"fair",1,0,1.69691152899759,"One",-1,-1
303,"Juror","group",163,2.1,"amb",2,0,0.924746737990063,"Two",0,0
303,"Juror","group",164,4.4,"fair",2,0,0.832232883985853,"Two",0,-1
303,"Juror","group",165,4.1,"fair",1,0,0.857961627014447,"One",-1,-1
303,"Juror","group",166,3.8,"fair",1,0,0.60534164699493,"One",-1,-1
303,"Juror","group",167,4.1,"fair",2,0,0.85242386200116,"Two",0,-1
303,"Juror","group",168,4.2,"fair",1,0,0.633892159996321,"One",-1,-1
303,"Juror","alone",169,4.3,"fair",NA,0,1.49251045999699,"Alone",NA,-1
303,"Juror","group",170,4.6,"fair",3,0,1.17868553000153,"Three",1,-1
303,"Juror","group",171,4.8,"fair",0,0,0.782011584000429,"Zero",-3,-1
303,"Juror","group",172,2.5,"amb",1,0,1.56036987400148,"One",-1,0
303,"Juror","group",173,4.2,"fair",1,0,0.710121904994594,"One",-1,-1
303,"Juror","group",174,4.3,"fair",3,0,3.77017381601036,"Three",1,-1
303,"Juror","group",175,0.6,"unfair",4,1,2.45110993500566,"Four",3,1
303,"Juror","alone",176,4.6,"fair",NA,0,0.704900879994966,"Alone",NA,-1
303,"Juror","group",177,0.4,"unfair",3,1,2.18681209400529,"Three",1,1
303,"Juror","group",178,2.7,"amb",0,0,1.51842633399065,"Zero",-3,0
303,"Juror","group",179,4.5,"fair",1,0,0.618260506016668,"One",-1,-1
303,"Juror","group",180,2.7,"amb",2,0,1.97670718599693,"Two",0,0
303,"Juror","group",181,2.9,"amb",0,0,0.955673054006184,"Zero",-3,0
303,"Juror","group",182,1.2,"unfair",1,1,1.27147804701235,"One",-1,1
303,"Juror","group",183,4.8,"fair",2,0,1.60174680702039,"Two",0,-1
303,"Juror","alone",184,0.800000000000001,"unfair",NA,1,0.857454378012335,"Alone",NA,1
303,"Juror","group",185,1,"unfair",1,1,1.60056499901111,"One",-1,1
303,"Juror","group",186,4.6,"fair",0,0,2.37255131200072,"Zero",-3,-1
303,"Juror","group",187,4,"fair",3,0,1.08863571699476,"Three",1,-1
303,"Juror","group",188,4.3,"fair",1,0,0.967539962002775,"One",-1,-1
303,"Juror","group",189,0.4,"unfair",4,1,1.8618636210158,"Four",3,1
303,"Juror","group",190,2.7,"amb",4,0,0.759758718981175,"Four",3,0
303,"Juror","group",191,0.5,"unfair",1,1,0.884517373982817,"One",-1,1
303,"Juror","group",192,3.1,"amb",2,0,0.76648115698481,"Two",0,0
303,"Juror","group",193,1.1,"unfair",2,1,1.5420818439743,"Two",0,1
303,"Juror","group",194,0.4,"unfair",2,1,0.655382383003598,"Two",0,1
303,"Juror","group",195,1.2,"unfair",1,1,2.26030972099397,"One",-1,1
303,"Juror","alone",196,4.8,"fair",NA,0,0.672335297014797,"Alone",NA,-1
303,"Juror","group",197,4.9,"fair",1,0,0.613172334997216,"One",-1,-1
303,"Juror","group",198,2.3,"amb",4,0,1.78039752697805,"Four",3,0
303,"Juror","group",199,1.3,"unfair",3,1,1.50633854800253,"Three",1,1
303,"Juror","group",200,4.2,"fair",4,0,0.63450117802131,"Four",3,-1
303,"Juror","group",201,2.9,"amb",0,0,0.625952291011345,"Zero",-3,0
303,"Juror","group",202,4.2,"fair",3,0,0.695144696015632,"Three",1,-1
303,"Juror","group",203,2.5,"amb",0,0,0.604775943997083,"Zero",-3,0
303,"Juror","group",204,0.699999999999999,"unfair",0,1,0.888772059988696,"Zero",-3,1
303,"Juror","group",205,4.6,"fair",3,0,0.72798719999264,"Three",1,-1
303,"Juror","group",206,0.5,"unfair",4,1,0.913903253007447,"Four",3,1
303,"Juror","group",207,4.3,"fair",1,0,0.640323197003454,"One",-1,-1
303,"Juror","group",208,2.2,"amb",3,0,2.55156130102114,"Three",1,0
303,"Juror","group",209,2.6,"amb",1,0,0.641676875005942,"One",-1,0
303,"Juror","group",210,4.5,"fair",0,0,1.99688917599269,"Zero",-3,-1
303,"Juror","group",211,4.2,"fair",0,0,0.711654351005564,"Zero",-3,-1
303,"Juror","group",212,4.3,"fair",2,0,0.571137829014333,"Two",0,-1
303,"Juror","group",213,4.3,"fair",2,0,0.488178125990089,"Two",0,-1
303,"Juror","group",214,0.800000000000001,"unfair",1,1,0.829051359003643,"One",-1,1
303,"Juror","group",215,0.300000000000001,"unfair",1,1,1.96250885099289,"One",-1,1
303,"Juror","group",216,0.9,"unfair",3,1,1.84159948400338,"Three",1,1
303,"Juror","group",217,2.1,"amb",0,0,1.12994804201298,"Zero",-3,0
303,"Juror","group",218,3.7,"fair",2,0,0.895307344995672,"Two",0,-1
303,"Juror","alone",219,0.199999999999999,"unfair",NA,1,0.889337672997499,"Alone",NA,1
303,"Juror","group",220,0.9,"unfair",0,1,0.579363805998582,"Zero",-3,1
303,"Juror","group",221,0.9,"unfair",0,1,0.651835552998818,"Zero",-3,1
303,"Juror","group",222,0.5,"unfair",1,1,0.692703854001593,"One",-1,1
303,"Juror","group",223,0.699999999999999,"unfair",1,1,0.978620109002804,"One",-1,1
303,"Juror","group",224,2.7,"amb",4,0,0.871856656012824,"Four",3,0
303,"Juror","alone",225,2.7,"amb",NA,0,1.79853893999825,"Alone",NA,0
303,"Juror","alone",226,0.800000000000001,"unfair",NA,1,0.789112077996833,"Alone",NA,1
303,"Juror","group",227,1.2,"unfair",2,1,4.57925187700312,"Two",0,1
303,"Juror","group",228,1.9,"amb",3,1,1.01658566499827,"Three",1,0
303,"Juror","group",229,2.4,"amb",0,1,1.8273581659887,"Zero",-3,0
303,"Juror","group",230,0.6,"unfair",0,1,0.847305799979949,"Zero",-3,1
303,"Juror","group",231,4,"fair",0,0,0.875319557992043,"Zero",-3,-1
303,"Juror","group",232,4.8,"fair",4,0,1.28483772801701,"Four",3,-1
303,"Juror","group",233,2,"amb",1,1,1.32742619997589,"One",-1,0
303,"Juror","group",234,0.6,"unfair",2,1,0.742394769971725,"Two",0,1
303,"Juror","group",236,4.8,"fair",1,0,2.29927759099519,"One",-1,-1
303,"Juror","group",237,2.4,"amb",4,1,2.32797567298985,"Four",3,0
303,"Juror","group",239,2.4,"amb",2,1,2.04765519598732,"Two",0,0
303,"Juror","group",240,4.8,"fair",4,0,1.13438058400061,"Four",3,-1
303,"Juror","group",241,0.800000000000001,"unfair",2,1,1.09981098602293,"Two",0,1
303,"Juror","group",242,1.1,"unfair",1,1,0.757396971981507,"One",-1,1
303,"Juror","group",243,2.3,"amb",2,1,1.16964893302065,"Two",0,0
303,"Juror","group",245,2.4,"amb",1,1,0.886292753013549,"One",-1,0
303,"Juror","group",246,4.1,"fair",2,0,0.827597369003342,"Two",0,-1
303,"Juror","group",247,4.5,"fair",0,0,0.665837203006959,"Zero",-3,-1
303,"Juror","group",248,1.1,"unfair",1,1,1.01497249200474,"One",-1,1
303,"Juror","group",249,2.1,"amb",0,1,1.24045770298108,"Zero",-3,0
303,"Juror","group",250,0.800000000000001,"unfair",0,0,1.00334720298997,"Zero",-3,1
303,"Juror","group",251,4.4,"fair",1,0,0.819521575002,"One",-1,-1
303,"Juror","alone",252,2.1,"amb",NA,1,1.12711133799166,"Alone",NA,0
303,"Juror","group",253,4.3,"fair",3,0,0.960768293007277,"Three",1,-1
303,"Juror","group",254,4.6,"fair",2,0,0.80094374800683,"Two",0,-1
303,"Juror","group",255,2.3,"amb",2,1,1.28879342999426,"Two",0,0
303,"Juror","group",256,0.800000000000001,"unfair",0,1,1.05571652000071,"Zero",-3,1
303,"Juror","group",257,1.9,"amb",1,1,0.899683408002602,"One",-1,0
303,"Juror","group",258,2.5,"amb",3,1,2.40163144399412,"Three",1,0
303,"Juror","alone",259,0.9,"unfair",NA,1,1.64100590301678,"Alone",NA,1
303,"Juror","group",260,1.2,"unfair",1,1,1.27018404001137,"One",-1,1
303,"Juror","group",261,0.199999999999999,"unfair",3,1,0.536314299009973,"Three",1,1
303,"Juror","group",262,1.9,"amb",1,1,0.589689680025913,"One",-1,0
303,"Juror","group",263,4,"fair",3,0,0.708988741011126,"Three",1,-1
303,"Juror","group",264,4.5,"fair",0,0,0.664163512003142,"Zero",-3,-1
303,"Juror","group",265,3.1,"amb",4,0,0.895810797985177,"Four",3,0
303,"Juror","group",266,0.4,"unfair",2,1,1.89327047200641,"Two",0,1
303,"Juror","group",267,2,"amb",0,1,1.09730768800364,"Zero",-3,0
303,"Juror","group",268,1,"unfair",3,1,1.14246475000982,"Three",1,1
303,"Juror","group",269,2.8,"amb",0,0,1.15262697997969,"Zero",-3,0
303,"Juror","group",270,3.1,"amb",1,0,0.946351343998685,"One",-1,0
303,"Juror","group",271,1,"unfair",0,1,0.772721765999449,"Zero",-3,1
303,"Juror","alone",272,4.4,"fair",NA,0,0.739386531000491,"Alone",NA,-1
303,"Juror","group",273,2.5,"amb",0,0,1.47794606699608,"Zero",-3,0
303,"Juror","group",274,4.6,"fair",3,0,0.969999733002624,"Three",1,-1
303,"Juror","group",275,2.6,"amb",0,0,0.970359567989362,"Zero",-3,0
303,"Juror","group",276,4.9,"fair",2,0,1.15754694101634,"Two",0,-1
303,"Juror","group",277,4,"fair",0,0,0.618094121018657,"Zero",-3,-1
303,"Juror","group",278,0.9,"unfair",2,1,0.931503508996684,"Two",0,1
303,"Juror","group",279,2.6,"amb",4,0,1.49403119101771,"Four",3,0
303,"Juror","group",280,0.4,"unfair",1,1,0.891336725995643,"One",-1,1
303,"Juror","group",281,4.8,"fair",4,0,0.789546715997858,"Four",3,-1
303,"Juror","group",282,3.8,"fair",0,0,0.720542250986909,"Zero",-3,-1
303,"Juror","alone",283,4.6,"fair",NA,0,0.731562228989787,"Alone",NA,-1
303,"Juror","group",284,1.1,"unfair",2,1,1.42258031698293,"Two",0,1
303,"Juror","group",285,3,"amb",4,0,1.0606752979802,"Four",3,0
303,"Juror","group",286,2.9,"amb",3,0,1.43497263500467,"Three",1,0
303,"Juror","group",287,2.1,"amb",2,1,1.15360958999372,"Two",0,0
303,"Juror","group",289,3.9,"fair",1,0,0.985885450994829,"One",-1,-1
303,"Juror","group",290,2.3,"amb",0,1,1.12136294398806,"Zero",-3,0
303,"Juror","group",291,0.4,"unfair",3,1,1.09380295698065,"Three",1,1
303,"Juror","group",292,0.800000000000001,"unfair",0,1,0.823245639010565,"Zero",-3,1
303,"Juror","group",293,2.6,"amb",3,0,1.2569120079861,"Three",1,0
303,"Juror","group",294,4,"fair",1,0,0.892469834012445,"One",-1,-1
303,"Juror","group",295,4.4,"fair",2,0,0.635732430993812,"Two",0,-1
303,"Juror","group",296,2.4,"amb",1,1,4.18540129301255,"One",-1,0
303,"Juror","group",297,4.4,"fair",0,0,0.819901940005366,"Zero",-3,-1
303,"Juror","group",298,3.9,"fair",1,0,0.820393050991697,"One",-1,-1
303,"Juror","group",299,2.7,"amb",2,0,1.0285910719831,"Two",0,0
303,"Juror","group",300,2.8,"amb",0,0,0.6102708390099,"Zero",-3,0
303,"Juror","group",301,0.300000000000001,"unfair",3,1,0.663182696996955,"Three",1,1
303,"Juror","group",302,2.8,"amb",2,0,0.817712513002334,"Two",0,0
303,"Juror","alone",303,3,"amb",NA,0,0.600469494005665,"Alone",NA,0
303,"Juror","group",304,2.7,"amb",0,0,0.507411560014589,"Zero",-3,0
303,"Juror","group",305,1,"unfair",3,1,0.674461209011497,"Three",1,1
303,"Juror","alone",306,3.9,"fair",NA,0,0.647834539995529,"Alone",NA,-1
303,"Juror","group",307,1,"unfair",0,1,0.701204081997275,"Zero",-3,1
303,"Juror","group",308,2.2,"amb",4,1,1.16242011598661,"Four",3,0
303,"Juror","group",309,2,"amb",1,1,1.01505093200831,"One",-1,0
303,"Juror","alone",310,4.4,"fair",NA,0,1.11320364501444,"Alone",NA,-1
303,"Juror","group",311,2.9,"amb",1,1,0.97137091998593,"One",-1,0
303,"Juror","group",312,4.5,"fair",3,0,0.613041394011816,"Three",1,-1
303,"Juror","group",313,4.3,"fair",2,0,0.454459533008048,"Two",0,-1
303,"Juror","group",314,0.5,"unfair",4,1,0.668447600008221,"Four",3,1
303,"Juror","group",315,0.199999999999999,"unfair",3,1,0.67904357201769,"Three",1,1
303,"Juror","alone",316,4.3,"fair",NA,0,0.595078760990873,"Alone",NA,-1
303,"Juror","group",317,2.3,"amb",3,1,0.888462905015331,"Three",1,0
303,"Juror","group",318,0.699999999999999,"unfair",1,1,0.818003958003828,"One",-1,1
303,"Juror","group",319,3,"amb",1,1,0.679974226019112,"One",-1,0
303,"Juror","group",320,2.8,"amb",2,0,1.11952315099188,"Two",0,0
303,"Juror","group",321,2.6,"amb",3,0,1.06472638700507,"Three",1,0
303,"Juror","group",322,4.2,"fair",2,0,0.644388773012906,"Two",0,-1
303,"Juror","group",323,0.9,"unfair",3,1,0.723387650999939,"Three",1,1
303,"Juror","group",324,2.3,"amb",0,1,1.18644771899562,"Zero",-3,0
303,"Juror","group",325,0.5,"unfair",3,1,1.53834236701368,"Three",1,1
303,"Juror","group",326,4.4,"fair",3,0,0.755191408010432,"Three",1,-1
303,"Juror","group",327,4.1,"fair",2,0,0.681377814005828,"Two",0,-1
303,"Juror","group",328,3,"amb",2,0,1.08648700299091,"Two",0,0
303,"Juror","group",329,4.5,"fair",4,0,3.74516411000513,"Four",3,-1
303,"Juror","group",330,2.9,"amb",3,0,0.81657560999156,"Three",1,0
303,"Juror","alone",331,0.4,"unfair",NA,1,0.681879923009546,"Alone",NA,1
303,"Juror","group",332,0.6,"unfair",4,1,0.660963765985798,"Four",3,1
303,"Juror","group",333,2.5,"amb",3,0,3.68916064899531,"Three",1,0
303,"Juror","group",334,1.1,"unfair",0,1,1.03648227697704,"Zero",-3,1
303,"Juror","group",335,4.6,"fair",4,0,0.746439444978023,"Four",3,-1
303,"Juror","group",336,2.8,"amb",3,0,2.02815619600005,"Three",1,0
303,"Juror","group",337,2.2,"amb",2,1,3.94125920601073,"Two",0,0
303,"Juror","group",338,4.5,"fair",1,0,0.596104334981646,"One",-1,-1
303,"Juror","group",339,2.1,"amb",2,1,0.954978418012615,"Two",0,0
303,"Juror","alone",340,1.1,"unfair",NA,1,1.04841706799925,"Alone",NA,1
303,"Juror","group",341,4,"fair",3,0,0.763158988003852,"Three",1,-1
303,"Juror","group",342,1.9,"amb",0,1,0.822034824988805,"Zero",-3,0
303,"Juror","group",343,0.5,"unfair",4,1,0.734667621989502,"Four",3,1
303,"Juror","group",344,3.7,"fair",3,0,0.730897052999353,"Three",1,-1
303,"Juror","alone",345,4.8,"fair",NA,0,0.997738197009312,"Alone",NA,-1
303,"Juror","group",346,1.9,"amb",3,1,0.66990424200776,"Three",1,0
303,"Juror","group",347,2.2,"amb",1,1,0.757369655999355,"One",-1,0
303,"Juror","group",348,4.2,"fair",2,0,0.644411332992604,"Two",0,-1
303,"Juror","group",349,1.1,"unfair",4,1,0.593317680002656,"Four",3,1
303,"Juror","group",350,1,"unfair",4,1,0.728963616013061,"Four",3,1
303,"Juror","group",351,4.1,"fair",1,0,0.727245738002239,"One",-1,-1
303,"Juror","group",352,1,"unfair",4,1,0.563272520987084,"Four",3,1
303,"Juror","group",353,0.5,"unfair",1,1,0.524511077004718,"One",-1,1
303,"Juror","group",354,2.9,"amb",2,0,1.01373088400578,"Two",0,0
303,"Juror","group",355,0.6,"unfair",4,1,0.635788682004204,"Four",3,1
303,"Juror","group",356,4,"fair",3,0,0.688781448989175,"Three",1,-1
303,"Juror","group",357,1.2,"unfair",0,1,0.784055601019645,"Zero",-3,1
303,"Juror","group",358,1.2,"unfair",0,1,0.568087973981164,"Zero",-3,1
303,"Juror","group",359,2.1,"amb",1,1,0.724578171008034,"One",-1,0
303,"Juror","group",360,0.800000000000001,"unfair",3,1,0.635182347992668,"Three",1,1
303,"Juror","group",361,4.6,"fair",4,1,0.693599727994297,"Four",3,-1
303,"Juror","group",362,2.9,"amb",0,0,1.13763497699983,"Zero",-3,0
303,"Juror","group",363,4.3,"fair",1,0,0.699596641003154,"One",-1,-1
303,"Juror","group",364,2.2,"amb",4,0,0.988333307002904,"Four",3,0
303,"Juror","group",365,2.2,"amb",1,1,1.62848862199462,"One",-1,0
303,"Juror","group",366,4,"fair",3,0,0.724728827015497,"Three",1,-1
303,"Juror","group",367,0.800000000000001,"unfair",3,1,0.726861883013044,"Three",1,1
303,"Juror","alone",368,2.3,"amb",NA,1,0.809189485997194,"Alone",NA,0
303,"Juror","group",369,1.3,"unfair",3,1,0.716053821990499,"Three",1,1
303,"Juror","group",370,1.3,"unfair",2,1,0.680623348016525,"Two",0,1
303,"Juror","group",371,4.3,"fair",4,0,0.703994862997206,"Four",3,-1
303,"Juror","group",372,4.4,"fair",1,0,0.74059342397959,"One",-1,-1
303,"Juror","alone",373,0.699999999999999,"unfair",NA,1,0.765364264982054,"Alone",NA,1
303,"Juror","alone",374,3,"amb",NA,0,1.96205739400466,"Alone",NA,0
303,"Juror","group",375,2.4,"amb",1,1,1.44105889799539,"One",-1,0
303,"Juror","group",376,2.1,"amb",4,1,0.851434309006436,"Four",3,0
303,"Juror","group",377,2.8,"amb",0,1,0.686445005005226,"Zero",-3,0
303,"Juror","alone",378,2.7,"amb",NA,0,1.76011662901146,"Alone",NA,0
303,"Juror","group",379,4.3,"fair",2,0,1.37998239102308,"Two",0,-1
303,"Juror","group",380,2.4,"amb",3,0,0.500174150976818,"Three",1,0
303,"Juror","group",381,4.8,"fair",0,0,0.805752860003849,"Zero",-3,-1
303,"Juror","group",382,3,"amb",1,0,0.865359537012409,"One",-1,0
303,"Juror","group",383,0.4,"unfair",0,1,0.779529254010413,"Zero",-3,1
303,"Juror","group",384,2.9,"amb",3,0,1.04019094700925,"Three",1,0
303,"Juror","group",385,4.3,"fair",4,0,0.639679777988931,"Four",3,-1
303,"Juror","alone",386,2.4,"amb",NA,1,1.65785507299006,"Alone",NA,0
303,"Juror","group",387,2.9,"amb",2,0,1.48760418299935,"Two",0,0
303,"Juror","alone",388,4,"fair",NA,0,0.672747754986631,"Alone",NA,-1
303,"Juror","group",389,4.9,"fair",0,0,0.559871019009734,"Zero",-3,-1
303,"Juror","group",390,1.1,"unfair",2,1,0.690416222991189,"Two",0,1
303,"Juror","group",391,4.2,"fair",3,0,1.30485514499014,"Three",1,-1
303,"Juror","group",392,4.2,"fair",2,0,0.657931377005298,"Two",0,-1
303,"Juror","group",393,2.5,"amb",4,0,1.22746369001106,"Four",3,0
303,"Juror","group",394,1.2,"unfair",4,1,0.866604622016894,"Four",3,1
303,"Juror","group",395,4.6,"fair",0,0,0.592164000991033,"Zero",-3,-1
303,"Juror","alone",396,0.9,"unfair",NA,1,0.747056043008342,"Alone",NA,1
303,"Juror","group",397,3.7,"fair",0,0,0.703013546008151,"Zero",-3,-1
303,"Juror","group",398,1.2,"unfair",2,1,0.738456783990841,"Two",0,1
303,"Juror","group",399,4.7,"fair",0,0,0.694139275990892,"Zero",-3,-1
303,"Juror","group",400,1.2,"unfair",3,1,0.660958060994744,"Three",1,1
303,"Juror","group",401,2.2,"amb",2,1,1.09143350098748,"Two",0,0
303,"Juror","group",402,0.800000000000001,"unfair",1,1,0.877003547007916,"One",-1,1
303,"Juror","group",403,0.800000000000001,"unfair",4,1,0.878595393995056,"Four",3,1
303,"Juror","group",404,0.5,"unfair",2,1,0.643759744009003,"Two",0,1
303,"Juror","group",405,4.5,"fair",0,0,0.766679590014974,"Zero",-3,-1
303,"Juror","group",406,2.1,"amb",0,1,1.75491359300213,"Zero",-3,0
303,"Juror","group",407,3.7,"fair",2,0,0.595565796014853,"Two",0,-1
303,"Juror","group",408,0.6,"unfair",0,1,0.606049816997256,"Zero",-3,1
303,"Juror","group",409,0.300000000000001,"unfair",3,1,0.709750156005612,"Three",1,1
303,"Juror","group",410,4.5,"fair",2,0,0.596305211016443,"Two",0,-1
303,"Juror","group",411,4.6,"fair",3,0,0.568791989004239,"Three",1,-1
303,"Juror","group",412,0.300000000000001,"unfair",0,1,0.688279630994657,"Zero",-3,1
303,"Juror","group",413,4.7,"fair",0,0,0.89050729299197,"Zero",-3,-1
303,"Juror","group",414,1.1,"unfair",0,1,0.884572181006661,"Zero",-3,1
303,"Juror","group",415,2.5,"amb",1,0,1.35252786902129,"One",-1,0
303,"Juror","group",416,3,"amb",2,0,1.35279989198898,"Two",0,0
303,"Juror","group",417,2.3,"amb",2,1,0.92957273698994,"Two",0,0
303,"Juror","group",418,0.9,"unfair",4,1,0.870633768005064,"Four",3,1
303,"Juror","group",419,0.699999999999999,"unfair",3,1,0.579295413015643,"Three",1,1
303,"Juror","group",420,2.4,"amb",0,1,1.32458092097659,"Zero",-3,0
303,"Juror","alone",421,4.4,"fair",NA,0,0.848923590994673,"Alone",NA,-1
303,"Juror","group",422,0.0999999999999996,"unfair",1,1,0.681155451020459,"One",-1,1
303,"Juror","group",423,4.7,"fair",1,0,0.639088945987169,"One",-1,-1
303,"Juror","group",424,4.7,"fair",3,0,0.581831510004122,"Three",1,-1
303,"Juror","group",425,0.199999999999999,"unfair",0,1,0.720445706014289,"Zero",-3,1
303,"Juror","alone",426,2.7,"amb",NA,0,1.37231047300156,"Alone",NA,0
303,"Juror","group",427,1.1,"unfair",4,1,0.821932328981347,"Four",3,1
303,"Juror","group",428,4.8,"fair",3,0,0.668992149003316,"Three",1,-1
303,"Juror","group",429,0.699999999999999,"unfair",0,1,0.70192991400836,"Zero",-3,1
303,"Juror","group",430,2.4,"amb",3,1,1.5040013169928,"Three",1,0
303,"Juror","group",431,2.2,"amb",4,1,1.27506556600565,"Four",3,0
303,"Juror","group",432,1,"unfair",2,1,0.691460959991673,"Two",0,1
303,"Juror","group",433,4.8,"fair",4,0,0.747177104989532,"Four",3,-1
303,"Juror","group",434,4.2,"fair",0,0,0.967040565010393,"Zero",-3,-1
303,"Juror","alone",435,2.9,"amb",NA,0,0.826984358980553,"Alone",NA,0
303,"Juror","group",436,4.1,"fair",2,0,0.652760025986936,"Two",0,-1
303,"Juror","group",437,2,"amb",4,1,0.679084325005533,"Four",3,0
303,"Juror","group",438,4.8,"fair",1,0,0.613323367986595,"One",-1,-1
303,"Juror","group",439,2.8,"amb",1,0,0.721571830014,"One",-1,0
303,"Juror","group",440,2.1,"amb",3,0,0.624145368026802,"Three",1,0
303,"Juror","alone",441,4.4,"fair",NA,0,0.512119355000323,"Alone",NA,-1
303,"Juror","group",442,2.8,"amb",2,0,0.893827997992048,"Two",0,0
303,"Juror","group",443,1.1,"unfair",3,1,0.658133874007035,"Three",1,1
303,"Juror","group",444,1.9,"amb",4,1,0.579464111011475,"Four",3,0
303,"Juror","group",445,1,"unfair",2,0,0.59830568099278,"Two",0,1
303,"Juror","group",446,0.199999999999999,"unfair",2,1,0.625964288978139,"Two",0,1
303,"Juror","group",447,2,"amb",1,1,0.687959118018625,"One",-1,0
303,"Juror","group",448,0.9,"unfair",1,1,0.628489141003229,"One",-1,1
303,"Juror","group",449,0.5,"unfair",1,1,0.691491717996541,"One",-1,1
303,"Juror","group",450,0.199999999999999,"unfair",3,1,0.529741245001787,"Three",1,1
304,"Juror","group",31,2.9,"amb",1,0,1.44143804497435,"One",-1,0
304,"Juror","group",32,2.5,"amb",4,1,2.46212401200319,"Four",3,0
304,"Juror","group",33,4.5,"fair",3,0,0.80583865501103,"Three",1,-1
304,"Juror","group",34,1.2,"unfair",2,1,1.48635875398759,"Two",0,1
304,"Juror","group",35,0.699999999999999,"unfair",1,1,1.00568960400415,"One",-1,1
304,"Juror","group",36,0.300000000000001,"unfair",0,1,1.25325518500176,"Zero",-3,1
304,"Juror","group",37,4.5,"fair",2,0,1.00622746100998,"Two",0,-1
304,"Juror","group",38,2.3,"amb",4,1,2.53097501501907,"Four",3,0
304,"Juror","alone",39,4.5,"fair",NA,0,1.85168485098984,"Alone",NA,-1
304,"Juror","group",40,0.6,"unfair",0,1,1.80289344099583,"Zero",-3,1
304,"Juror","group",41,4.9,"fair",4,0,0.791430001001572,"Four",3,-1
304,"Juror","group",42,2.3,"amb",4,0,2.21091111502028,"Four",3,0
304,"Juror","group",43,2,"amb",3,1,1.26960419400712,"Three",1,0
304,"Juror","group",44,2.9,"amb",4,1,1.63463676199899,"Four",3,0
304,"Juror","group",45,0.300000000000001,"unfair",4,1,0.847028799005784,"Four",3,1
304,"Juror","group",46,3.8,"fair",2,0,0.840504096995573,"Two",0,-1
304,"Juror","alone",47,4.7,"fair",NA,0,0.693290116993012,"Alone",NA,-1
304,"Juror","group",48,0.800000000000001,"unfair",1,1,1.41276337401359,"One",-1,1
304,"Juror","group",49,2.9,"amb",0,0,1.51417106000008,"Zero",-3,0
304,"Juror","group",50,0.4,"unfair",0,1,0.786904638021952,"Zero",-3,1
304,"Juror","group",51,2.4,"amb",0,0,1.45685517301899,"Zero",-3,0
304,"Juror","group",52,3,"amb",2,0,1.25683148999815,"Two",0,0
304,"Juror","alone",53,0.6,"unfair",NA,1,0.909798901004251,"Alone",NA,1
304,"Juror","group",54,3.9,"fair",1,0,1.37322296900675,"One",-1,-1
304,"Juror","group",55,1,"unfair",2,1,0.788019584986614,"Two",0,1
304,"Juror","group",56,0.5,"unfair",4,1,0.819726418994833,"Four",3,1
304,"Juror","group",57,4.2,"fair",3,0,0.943272201984655,"Three",1,-1
304,"Juror","group",58,0.199999999999999,"unfair",2,1,0.84358358499594,"Two",0,1
304,"Juror","group",59,2.1,"amb",3,0,2.02569605602184,"Three",1,0
304,"Juror","group",60,0.6,"unfair",4,1,0.730409629002679,"Four",3,1
304,"Juror","group",61,3.8,"fair",2,0,0.989102947001811,"Two",0,-1
304,"Juror","group",62,3,"amb",0,0,1.72581577900564,"Zero",-3,0
304,"Juror","group",63,3.1,"amb",4,0,0.915941637009382,"Four",3,0
304,"Juror","alone",64,0.0999999999999996,"unfair",NA,1,0.961917129985522,"Alone",NA,1
304,"Juror","group",65,2.1,"amb",0,1,1.63883317299769,"Zero",-3,0
304,"Juror","group",66,2.1,"amb",3,0,0.97750423301477,"Three",1,0
304,"Juror","group",67,1.2,"unfair",3,1,0.685180592990946,"Three",1,1
304,"Juror","group",68,4.5,"fair",1,0,1.18592615399393,"One",-1,-1
304,"Juror","alone",69,4.5,"fair",NA,0,0.868087106995517,"Alone",NA,-1
304,"Juror","group",70,4.1,"fair",2,0,0.620567053993,"Two",0,-1
304,"Juror","group",71,4.3,"fair",3,0,0.69567578000715,"Three",1,-1
304,"Juror","group",72,1.2,"unfair",1,1,0.631063003995223,"One",-1,1
304,"Juror","group",73,0.199999999999999,"unfair",3,1,0.731134664005367,"Three",1,1
304,"Juror","group",74,2.3,"amb",3,0,0.828109013003996,"Three",1,0
304,"Juror","group",75,4.6,"fair",4,0,1.7208807579882,"Four",3,-1
304,"Juror","group",76,0.199999999999999,"unfair",3,1,1.43463245499879,"Three",1,1
304,"Juror","group",77,0.199999999999999,"unfair",1,1,1.12992772500729,"One",-1,1
304,"Juror","alone",78,4.2,"fair",NA,0,0.929632946004858,"Alone",NA,-1
304,"Juror","group",79,2.1,"amb",2,1,1.3439902550017,"Two",0,0
304,"Juror","group",80,2.6,"amb",2,1,0.819723625027109,"Two",0,0
304,"Juror","group",81,4.1,"fair",3,0,1.41735136701027,"Three",1,-1
304,"Juror","group",82,1.1,"unfair",0,1,0.982577507005772,"Zero",-3,1
304,"Juror","group",83,4.4,"fair",2,0,1.27953101799358,"Two",0,-1
304,"Juror","group",84,3.9,"fair",2,0,1.08705349898082,"Two",0,-1
304,"Juror","group",85,4,"fair",0,0,0.643879536975874,"Zero",-3,-1
304,"Juror","group",86,1,"unfair",4,1,0.770636508997995,"Four",3,1
304,"Juror","group",87,4.6,"fair",1,0,0.692896833992563,"One",-1,-1
304,"Juror","group",88,2.9,"amb",0,0,3.52709040199989,"Zero",-3,0
304,"Juror","group",89,3,"amb",4,0,1.04534387600143,"Four",3,0
304,"Juror","group",90,1.2,"unfair",4,1,1.41439924499718,"Four",3,1
304,"Juror","group",91,2.2,"amb",1,1,1.30472286100849,"One",-1,0
304,"Juror","group",92,2.4,"amb",4,0,1.65205120699829,"Four",3,0
304,"Juror","group",93,3.8,"fair",4,0,0.915737864008406,"Four",3,-1
304,"Juror","group",94,4.6,"fair",1,0,0.999645553994924,"One",-1,-1
304,"Juror","group",95,4.9,"fair",1,0,0.684138880023966,"One",-1,-1
304,"Juror","group",96,3,"amb",4,1,1.95232147199567,"Four",3,0
304,"Juror","group",97,1.1,"unfair",2,0,0.567926154995803,"Two",0,1
304,"Juror","group",98,4.4,"fair",2,0,0.803774767002324,"Two",0,-1
304,"Juror","group",99,2.4,"amb",3,0,1.35057858499931,"Three",1,0
304,"Juror","group",100,2.8,"amb",3,1,1.0700869919965,"Three",1,0
304,"Juror","group",101,4.2,"fair",3,0,0.673990965995472,"Three",1,-1
304,"Juror","group",102,2.6,"amb",0,0,0.873972786997911,"Zero",-3,0
304,"Juror","group",103,3.8,"fair",2,0,0.764867530990159,"Two",0,-1
304,"Juror","group",104,1.1,"unfair",2,1,0.573412304976955,"Two",0,1
304,"Juror","group",105,3.7,"fair",2,0,0.747405414003879,"Two",0,-1
304,"Juror","group",106,3.9,"fair",3,0,0.73947263500304,"Three",1,-1
304,"Juror","group",107,4,"fair",0,0,0.772383501986042,"Zero",-3,-1
304,"Juror","group",108,1,"unfair",4,1,0.642161186988233,"Four",3,1
304,"Juror","group",109,0.6,"unfair",1,1,1.18578258098569,"One",-1,1
304,"Juror","group",110,0.5,"unfair",4,1,0.780838484992273,"Four",3,1
304,"Juror","group",111,3.1,"amb",3,1,2.06251490901923,"Three",1,0
304,"Juror","group",112,4.6,"fair",2,0,0.53824827898643,"Two",0,-1
304,"Juror","group",113,0.800000000000001,"unfair",2,1,0.742231326003093,"Two",0,1
304,"Juror","group",114,4.5,"fair",4,0,0.754765435005538,"Four",3,-1
304,"Juror","group",115,3.8,"fair",0,0,1.02058163000038,"Zero",-3,-1
304,"Juror","group",116,4.1,"fair",0,0,0.724448583991034,"Zero",-3,-1
304,"Juror","group",117,1.1,"unfair",0,1,0.728561016003368,"Zero",-3,1
304,"Juror","group",118,0.300000000000001,"unfair",4,1,1.20567085800576,"Four",3,1
304,"Juror","group",119,2.5,"amb",3,0,1.97508881802787,"Three",1,0
304,"Juror","group",120,2.5,"amb",4,1,0.976145622000331,"Four",3,0
304,"Juror","group",121,2.6,"amb",4,0,0.920749011012958,"Four",3,0
304,"Juror","alone",122,4.8,"fair",NA,0,0.927535004011588,"Alone",NA,-1
304,"Juror","group",123,2.2,"amb",1,0,1.25637325100251,"One",-1,0
304,"Juror","group",124,2.2,"amb",1,0,1.13984973201877,"One",-1,0
304,"Juror","group",125,1.3,"unfair",0,1,0.782660722004948,"Zero",-3,1
304,"Juror","group",126,1,"unfair",3,1,1.29522795201046,"Three",1,1
304,"Juror","group",127,0.9,"unfair",1,1,1.32919974901597,"One",-1,1
304,"Juror","group",128,1.9,"amb",3,1,0.797218741994584,"Three",1,0
304,"Juror","group",129,4.2,"fair",1,0,1.80316202898393,"One",-1,-1
304,"Juror","group",130,1.1,"unfair",1,1,1.36616242199671,"One",-1,1
304,"Juror","group",131,4.1,"fair",4,0,1.50944264497957,"Four",3,-1
304,"Juror","group",132,1.1,"unfair",2,1,0.988525922992267,"Two",0,1
304,"Juror","group",133,4.2,"fair",3,1,2.14543656498427,"Three",1,-1
304,"Juror","group",134,4.5,"fair",1,0,0.562398505979218,"One",-1,-1
304,"Juror","group",135,2.9,"amb",3,1,1.66197780700168,"Three",1,0
304,"Juror","group",136,3.7,"fair",0,0,0.801704394980334,"Zero",-3,-1
304,"Juror","group",137,4.4,"fair",1,0,0.64663947300869,"One",-1,-1
304,"Juror","group",138,0.5,"unfair",0,1,0.692347108997637,"Zero",-3,1
304,"Juror","group",139,0.800000000000001,"unfair",2,1,0.864009306009393,"Two",0,1
304,"Juror","group",140,2.5,"amb",0,0,1.69536802000948,"Zero",-3,0
304,"Juror","group",141,2.2,"amb",4,1,0.770245869993232,"Four",3,0
304,"Juror","alone",142,3.8,"fair",NA,0,1.50416107999627,"Alone",NA,-1
304,"Juror","group",143,4.2,"fair",0,0,0.682842148991767,"Zero",-3,-1
304,"Juror","alone",144,3.8,"fair",NA,0,0.747938382002758,"Alone",NA,-1
304,"Juror","alone",145,1.9,"amb",NA,1,0.639681491011288,"Alone",NA,0
304,"Juror","group",146,2,"amb",3,1,0.836562262993539,"Three",1,0
304,"Juror","alone",147,2.5,"amb",NA,0,1.61736824500258,"Alone",NA,0
304,"Juror","group",148,2.7,"amb",3,1,0.874877143010963,"Three",1,0
304,"Juror","group",149,2.3,"amb",4,1,1.39869627499138,"Four",3,0
304,"Juror","group",150,2.8,"amb",2,0,0.615465104987379,"Two",0,0
304,"Juror","group",151,2.7,"amb",2,0,1.01865547001944,"Two",0,0
304,"Juror","group",152,4.2,"fair",1,0,0.783514455979457,"One",-1,-1
304,"Juror","alone",153,1,"unfair",NA,1,0.639966835005907,"Alone",NA,1
304,"Juror","group",154,3.9,"fair",4,1,0.548231936991215,"Four",3,-1
304,"Juror","alone",155,0.6,"unfair",NA,1,0.897125928982859,"Alone",NA,1
304,"Juror","group",156,0.0999999999999996,"unfair",4,1,1.11939110100502,"Four",3,1
304,"Juror","group",157,1.1,"unfair",1,1,0.989924567984417,"One",-1,1
304,"Juror","group",158,0.9,"unfair",0,1,0.789872922992799,"Zero",-3,1
304,"Juror","group",159,3,"amb",3,1,1.74486884599901,"Three",1,0
304,"Juror","group",160,2.9,"amb",0,0,0.864813911990495,"Zero",-3,0
304,"Juror","group",161,2,"amb",4,1,0.892419559997506,"Four",3,0
304,"Juror","group",162,4.2,"fair",3,0,1.3287831050111,"Three",1,-1
304,"Juror","group",163,3.8,"fair",0,0,0.628398734988878,"Zero",-3,-1
304,"Juror","group",164,1.1,"unfair",0,1,0.816841430001659,"Zero",-3,1
304,"Juror","group",165,3.7,"fair",2,0,1.20290867899894,"Two",0,-1
304,"Juror","group",166,1,"unfair",4,1,0.921141591010382,"Four",3,1
304,"Juror","group",167,3.9,"fair",4,0,0.966372345021227,"Four",3,-1
304,"Juror","group",168,4.1,"fair",0,0,0.574038104998181,"Zero",-3,-1
304,"Juror","group",169,2.1,"amb",0,1,0.689448229997652,"Zero",-3,0
304,"Juror","group",170,3,"amb",0,0,0.40061082597822,"Zero",-3,0
304,"Juror","alone",171,1.3,"unfair",NA,1,0.779713914991589,"Alone",NA,1
304,"Juror","group",172,2.9,"amb",2,0,0.577696316002402,"Two",0,0
304,"Juror","group",173,2.5,"amb",0,1,0.707187723979587,"Zero",-3,0
304,"Juror","group",174,2.6,"amb",2,0,0.73914296500152,"Two",0,0
304,"Juror","group",175,2.1,"amb",3,1,1.43663080199622,"Three",1,0
304,"Juror","group",176,0.9,"unfair",4,1,0.650418409000849,"Four",3,1
304,"Juror","group",177,1.1,"unfair",1,1,0.899471775977872,"One",-1,1
304,"Juror","alone",178,2.9,"amb",NA,0,0.814672278997023,"Alone",NA,0
304,"Juror","alone",179,0.199999999999999,"unfair",NA,1,0.601035619009053,"Alone",NA,1
304,"Juror","group",180,1.2,"unfair",3,1,0.555393029004335,"Three",1,1
304,"Juror","group",181,2.4,"amb",4,1,0.751945891010109,"Four",3,0
304,"Juror","group",182,1.2,"unfair",2,1,0.626647075987421,"Two",0,1
304,"Juror","group",183,1.3,"unfair",2,1,0.609424588008551,"Two",0,1
304,"Juror","group",184,4.9,"fair",0,0,0.391504359984538,"Zero",-3,-1
304,"Juror","group",185,2.1,"amb",2,1,0.888997326022945,"Two",0,0
304,"Juror","group",186,2.4,"amb",4,1,1.75905332699767,"Four",3,0
304,"Juror","alone",187,1.9,"amb",NA,1,0.740682809991995,"Alone",NA,0
304,"Juror","alone",188,0.6,"unfair",NA,1,0.640840201987885,"Alone",NA,1
304,"Juror","group",189,2.8,"amb",3,1,0.836566782003501,"Three",1,0
304,"Juror","group",190,4.8,"fair",1,0,0.482401207002113,"One",-1,-1
304,"Juror","group",191,2.6,"amb",2,0,0.680086002015742,"Two",0,0
304,"Juror","group",192,2.4,"amb",0,0,1.98543250799412,"Zero",-3,0
304,"Juror","group",193,4,"fair",3,0,1.01415838301182,"Three",1,-1
304,"Juror","group",194,1.3,"unfair",1,1,0.664637975016376,"One",-1,1
304,"Juror","group",195,4.1,"fair",2,0,1.46526695200009,"Two",0,-1
304,"Juror","group",196,0.9,"unfair",2,1,0.778084874007618,"Two",0,1
304,"Juror","group",197,4.3,"fair",2,0,0.76558021697565,"Two",0,-1
304,"Juror","alone",198,1,"unfair",NA,1,0.64552916699904,"Alone",NA,1
304,"Juror","group",199,0.0999999999999996,"unfair",3,1,0.4936585839896,"Three",1,1
304,"Juror","group",200,0.5,"unfair",3,1,0.515980611002306,"Three",1,1
304,"Juror","group",201,1,"unfair",3,1,0.527702199004125,"Three",1,1
304,"Juror","group",202,2.8,"amb",0,0,0.464057996985503,"Zero",-3,0
304,"Juror","group",203,1.1,"unfair",1,1,0.827894480986288,"One",-1,1
304,"Juror","group",204,4.2,"fair",2,0,0.79964574900805,"Two",0,-1
304,"Juror","alone",205,0.6,"unfair",NA,1,0.43447412000387,"Alone",NA,1
304,"Juror","group",206,2.1,"amb",3,0,0.903135711996583,"Three",1,0
304,"Juror","group",207,3,"amb",1,0,0.611568326014094,"One",-1,0
304,"Juror","group",208,2.3,"amb",1,0,0.458735952997813,"One",-1,0
304,"Juror","group",209,1,"unfair",3,1,0.565528152015759,"Three",1,1
304,"Juror","group",210,4.1,"fair",3,0,0.626783273997717,"Three",1,-1
304,"Juror","group",211,2.5,"amb",1,0,0.410762077983236,"One",-1,0
304,"Juror","group",212,2.2,"amb",0,0,0.722029321012087,"Zero",-3,0
304,"Juror","group",213,4.4,"fair",2,0,0.551335838012164,"Two",0,-1
304,"Juror","group",214,0.0999999999999996,"unfair",2,1,0.518094394996297,"Two",0,1
304,"Juror","alone",215,4.8,"fair",NA,0,0.940890205994947,"Alone",NA,-1
304,"Juror","group",216,2.1,"amb",4,1,0.428225507988827,"Four",3,0
304,"Juror","group",217,2.9,"amb",1,0,0.352265127003193,"One",-1,0
304,"Juror","group",218,0.199999999999999,"unfair",2,1,0.567539008014137,"Two",0,1
304,"Juror","group",219,1.2,"unfair",4,1,0.508896365005057,"Four",3,1
304,"Juror","group",220,2.2,"amb",1,0,0.587634315976175,"One",-1,0
304,"Juror","group",221,2.4,"amb",3,0,0.854916139011038,"Three",1,0
304,"Juror","alone",222,3.8,"fair",NA,0,0.739711296017049,"Alone",NA,-1
