node,sample,,index_sampled,rt_sampled,index,subj_idx,study,phase,trial,offer,fair_cat,rev_con,response,rt,rev_cat,rev_centered,fair_con
wfpt.1,0,0,4,0.9596460532268876,4,1,Victim,group,37,1.3,unfair,1.0,0,-1.5990411169996201,One,-1.0,1
wfpt.1,0,1,8,2.1021044868957977,8,1,Victim,group,41,0.5,unfair,4.0,1,1.79914280200001,Four,3.0,1
wfpt.1,0,2,9,2.2667044868957977,9,1,Victim,group,42,0.6,unfair,4.0,1,0.6858741000000921,Four,3.0,1
wfpt.1,0,3,21,1.958104486895798,21,1,Victim,group,54,0.30000000000000104,unfair,4.0,1,1.2205414619998,Four,3.0,1
wfpt.1,0,4,27,1.3410408231998865,27,1,Victim,group,61,0.30000000000000104,unfair,3.0,1,1.27127151400009,Three,1.0,1
wfpt.1,0,5,36,4.826676162074754,36,1,Victim,group,70,1.1,unfair,2.0,0,-1.5137629880000503,Two,0.0,1
wfpt.1,0,6,37,2.196673700353519,37,1,Victim,group,71,0.19999999999999898,unfair,0.0,0,-2.1382530629998704,Zero,-3.0,1
wfpt.1,0,7,39,3.8200761620747548,39,1,Victim,group,73,0.4,unfair,2.0,1,3.0557329540001805,Two,0.0,1
wfpt.1,0,8,40,1.729673700353519,40,1,Victim,group,74,0.800000000000001,unfair,0.0,0,-1.46247351000011,Zero,-3.0,1
wfpt.1,0,9,46,1.1599044868957977,46,1,Victim,group,80,1.1,unfair,4.0,1,0.8515852710002041,Four,3.0,1
wfpt.1,0,10,48,0.9516408231998863,48,1,Victim,group,82,1.1,unfair,3.0,1,1.3551275560003,Three,1.0,1
wfpt.1,0,11,50,2.0042737003535187,50,1,Victim,group,85,0.5,unfair,0.0,0,-1.1666154200002,Zero,-3.0,1
wfpt.1,0,12,53,1.891473700353519,53,1,Victim,group,88,1.3,unfair,0.0,0,-1.79348648299992,Zero,-3.0,1
wfpt.1,0,13,59,-2.0659191676377078,59,1,Victim,group,94,0.19999999999999898,unfair,0.0,0,-3.5048431379996097,Zero,-3.0,1
wfpt.1,0,14,60,1.2896408231998864,60,1,Victim,group,95,0.6,unfair,3.0,1,1.9128253200001397,Three,1.0,1
wfpt.1,0,15,61,2.4102408231998864,61,1,Victim,group,96,1.1,unfair,3.0,1,3.3179213519997597,Three,1.0,1
wfpt.1,0,16,63,1.5395044868957977,63,1,Victim,group,98,1.2,unfair,4.0,1,0.7937433179999971,Four,3.0,1
wfpt.1,0,17,67,0.7715044868957978,67,1,Victim,group,102,1.1,unfair,4.0,1,1.6518605620003701,Four,3.0,1
wfpt.1,0,18,69,2.4990460532268877,69,1,Victim,group,104,1.2,unfair,1.0,0,-0.6447260850000021,One,-1.0,1
wfpt.1,0,19,75,-2.3047191676377077,75,1,Victim,group,110,0.6,unfair,0.0,1,1.7778819549998799,Zero,-3.0,1
wfpt.1,0,20,76,-2.0177191676377073,76,1,Victim,group,111,0.699999999999999,unfair,0.0,0,-2.42136091400016,Zero,-3.0,1
wfpt.1,0,21,77,1.3355296664834366,77,1,Victim,alone,112,0.699999999999999,unfair,,1,1.78353129600009,Alone,,1
wfpt.1,0,22,78,-0.5521628044426782,78,1,Victim,group,113,0.5,unfair,2.0,1,3.9366231290000497,Two,0.0,1
wfpt.1,0,23,79,1.0860737003535188,79,1,Victim,group,114,1.0,unfair,0.0,0,-3.7665715940002,Zero,-3.0,1
wfpt.1,0,24,80,2.1120408231998864,80,1,Victim,group,115,1.2,unfair,3.0,1,1.30982624500029,Three,1.0,1
wfpt.1,0,25,82,2.6341296664834366,82,1,Victim,alone,117,0.19999999999999898,unfair,,1,1.70318450900004,Alone,,1
wfpt.1,0,26,83,1.4270761620747536,83,1,Victim,group,118,0.6,unfair,2.0,1,2.05922665699973,Two,0.0,1
wfpt.1,0,27,84,2.0442460532268876,84,1,Victim,group,119,0.800000000000001,unfair,1.0,0,-0.8277993219999191,One,-1.0,1
wfpt.1,0,28,85,1.1777044868957978,85,1,Victim,group,120,0.19999999999999898,unfair,4.0,1,0.915229180000097,Four,3.0,1
wfpt.1,0,29,91,-0.9678243847694208,91,1,Victim,group,126,0.5,unfair,1.0,0,-0.7482226269999049,One,-1.0,1
wfpt.1,0,30,92,2.707876162074754,92,1,Victim,group,127,1.1,unfair,2.0,1,1.53758974600032,Two,0.0,1
wfpt.1,0,31,96,1.0082408231998865,96,1,Victim,group,131,0.699999999999999,unfair,3.0,1,1.16166480299989,Three,1.0,1
wfpt.1,0,32,99,1.1957296664834367,99,1,Victim,alone,134,0.5,unfair,,1,2.2349489459997995,Alone,,1
wfpt.1,0,33,107,2.371876162074754,107,1,Victim,group,142,0.800000000000001,unfair,2.0,1,1.27466806199982,Two,0.0,1
wfpt.1,0,34,108,1.3094460532268875,108,1,Victim,group,143,1.1,unfair,1.0,1,2.03298247500015,One,-1.0,1
wfpt.1,0,35,111,-0.9018243847694207,111,1,Victim,group,146,0.5,unfair,1.0,1,3.2098315409998595,One,-1.0,1
wfpt.1,0,36,115,2.0810737003535187,115,1,Victim,group,150,0.5,unfair,0.0,0,-1.29828133000001,Zero,-3.0,1
wfpt.1,0,37,116,1.2622408231998865,116,1,Victim,group,151,0.699999999999999,unfair,3.0,1,0.8977511409998441,Three,1.0,1
wfpt.1,0,38,120,2.804476162074754,120,1,Victim,group,155,1.3,unfair,2.0,1,1.5804843000000801,Two,0.0,1
wfpt.1,0,39,121,2.0190761620747537,121,1,Victim,group,156,1.2,unfair,2.0,1,1.08319998800016,Two,0.0,1
wfpt.1,0,40,123,1.3586408231998865,123,1,Victim,group,158,0.800000000000001,unfair,3.0,1,1.36377985100034,Three,1.0,1
wfpt.1,0,41,126,0.9540408231998865,126,1,Victim,group,161,0.800000000000001,unfair,3.0,1,1.1480066210001498,Three,1.0,1
wfpt.1,0,42,130,1.0120761620747536,130,1,Victim,group,165,0.699999999999999,unfair,2.0,1,1.7313139620000602,Two,0.0,1
wfpt.1,0,43,131,1.795076162074754,131,1,Victim,group,166,0.19999999999999898,unfair,2.0,1,1.35846848700021,Two,0.0,1
wfpt.1,0,44,137,1.0604761620747536,137,1,Victim,group,173,0.5,unfair,2.0,1,1.3669111790000001,Two,0.0,1
wfpt.1,0,45,141,1.4104761620747537,141,1,Victim,group,177,0.9,unfair,2.0,1,1.05592788199965,Two,0.0,1
wfpt.1,0,46,142,1.1176737003535189,142,1,Victim,group,178,0.0999999999999996,unfair,0.0,0,-3.53024625599983,Zero,-3.0,1
wfpt.1,0,47,143,1.925473700353519,143,1,Victim,group,179,0.5,unfair,0.0,0,-0.9611218029999691,Zero,-3.0,1
wfpt.1,0,48,144,1.8545044868957976,144,1,Victim,group,180,0.5,unfair,4.0,1,1.02328207599976,Four,3.0,1
wfpt.1,0,49,145,1.0496408231998864,145,1,Victim,group,181,0.800000000000001,unfair,3.0,1,2.7935966099999,Three,1.0,1
wfpt.1,0,50,147,1.5449296664834369,147,1,Victim,alone,183,1.2,unfair,,1,1.3229841299999,Alone,,1
wfpt.1,0,51,153,-1.8702243847694209,153,1,Victim,group,189,1.0,unfair,1.0,1,1.75967143100024,One,-1.0,1
wfpt.1,0,52,158,1.8036737003535188,158,1,Victim,group,195,0.5,unfair,0.0,0,-3.29773643199997,Zero,-3.0,1
wfpt.1,0,53,160,3.414273700353519,160,1,Victim,group,197,0.4,unfair,0.0,0,-2.48310156700018,Zero,-3.0,1
wfpt.1,0,54,167,2.509046053226888,167,1,Victim,group,204,0.19999999999999898,unfair,1.0,1,1.7164352770000701,One,-1.0,1
wfpt.1,0,55,171,-0.8577628044426783,171,1,Victim,group,208,1.0,unfair,2.0,1,1.03650961299991,Two,0.0,1
wfpt.1,0,56,174,1.0668408231998865,174,1,Victim,group,211,1.0,unfair,3.0,1,0.885543017000145,Three,1.0,1
wfpt.1,0,57,176,1.0128408231998864,176,1,Victim,group,213,0.800000000000001,unfair,3.0,1,1.2464671560001102,Three,1.0,1
wfpt.1,0,58,177,2.1220460532268874,177,1,Victim,group,214,0.800000000000001,unfair,1.0,1,1.79794644899994,One,-1.0,1
wfpt.1,0,59,178,1.1506408231998864,178,1,Victim,group,215,0.0999999999999996,unfair,3.0,1,2.2786819159996403,Three,1.0,1
wfpt.1,0,60,182,1.5815044868957977,182,1,Victim,group,219,0.9,unfair,4.0,1,0.9425418410000931,Four,3.0,1
wfpt.1,0,61,183,1.2396761620747536,183,1,Victim,group,220,0.30000000000000104,unfair,2.0,1,1.7835544930003402,Two,0.0,1
wfpt.1,0,62,185,1.4732408231998864,185,1,Victim,group,222,0.6,unfair,3.0,1,1.0902808979999499,Three,1.0,1
wfpt.1,0,63,186,1.444704486895798,186,1,Victim,group,223,0.800000000000001,unfair,4.0,1,0.673259619000419,Four,3.0,1
wfpt.1,0,64,187,1.2462460532268875,187,1,Victim,group,224,1.0,unfair,1.0,1,2.9011245540000297,One,-1.0,1
wfpt.1,0,65,189,1.465273700353519,189,1,Victim,group,226,0.9,unfair,0.0,0,-1.04578956900014,Zero,-3.0,1
wfpt.1,0,66,190,1.1702408231998864,190,1,Victim,group,227,1.1,unfair,3.0,1,1.09359047699991,Three,1.0,1
wfpt.1,0,67,191,2.3493296664834364,191,1,Victim,alone,228,1.0,unfair,,1,0.8756582969999731,Alone,,1
wfpt.1,0,68,197,0.9714761620747538,197,1,Victim,group,234,0.6,unfair,2.0,1,1.26449812200008,Two,0.0,1
wfpt.1,0,69,198,2.3410408231998865,198,1,Victim,group,235,0.30000000000000104,unfair,3.0,1,0.582589133000056,Three,1.0,1
wfpt.1,0,70,200,-2.2561191676377073,200,1,Victim,group,238,0.6,unfair,0.0,1,3.30847112999982,Zero,-3.0,1
wfpt.1,0,71,207,-0.7331191676377073,207,1,Victim,group,246,1.2,unfair,0.0,0,-1.49180618299988,Zero,-3.0,1
wfpt.1,0,72,215,1.0671296664834369,215,1,Victim,alone,255,0.9,unfair,,1,1.26734938100026,Alone,,1
wfpt.1,0,73,216,0.9062408231998864,216,1,Victim,group,256,1.0,unfair,3.0,1,0.9428184550001791,Three,1.0,1
wfpt.1,0,74,220,1.7738408231998863,220,1,Victim,group,260,0.5,unfair,3.0,1,0.8277591629998821,Three,1.0,1
wfpt.1,0,75,221,-0.9126243847694206,221,1,Victim,group,261,1.1,unfair,1.0,1,0.663900784999896,One,-1.0,1
wfpt.1,0,76,222,-0.5553191676377073,222,1,Victim,group,262,1.3,unfair,0.0,1,1.68029501300043,Zero,-3.0,1
wfpt.1,0,77,228,1.5200761620747536,228,1,Victim,group,268,0.6,unfair,2.0,1,1.5934958309999299,Two,0.0,1
wfpt.1,0,78,231,1.1978737003535187,231,1,Victim,group,272,0.699999999999999,unfair,0.0,1,1.34199954999985,Zero,-3.0,1
wfpt.1,0,79,233,-1.164224384769421,233,1,Victim,group,274,0.699999999999999,unfair,1.0,1,1.4097690930002498,One,-1.0,1
wfpt.1,0,80,234,2.650646053226888,234,1,Victim,group,275,0.5,unfair,1.0,1,2.68114101800029,One,-1.0,1
wfpt.1,0,81,247,0.9817296664834367,247,1,Victim,alone,288,0.5,unfair,,1,0.9377156380000999,Alone,,1
wfpt.1,0,82,249,-1.1675191676377072,249,1,Victim,group,290,1.0,unfair,0.0,1,2.56252443099993,Zero,-3.0,1
wfpt.1,0,83,252,1.1124408231998864,252,1,Victim,group,293,0.5,unfair,3.0,1,0.7504338240000831,Three,1.0,1
wfpt.1,0,84,254,0.7476408231998863,254,1,Victim,group,295,1.0,unfair,3.0,1,1.759725635,Three,1.0,1
wfpt.1,0,85,257,0.7771044868957977,257,1,Victim,group,298,0.19999999999999898,unfair,4.0,1,1.76320734599994,Four,3.0,1
wfpt.1,0,86,259,2.2919044868957976,259,1,Victim,group,300,0.6,unfair,4.0,1,0.9872889120001669,Four,3.0,1
wfpt.1,0,87,263,2.4136761620747538,263,1,Victim,group,304,0.9,unfair,2.0,1,1.8265203169999,Two,0.0,1
wfpt.1,0,88,269,0.9119044868957977,269,1,Victim,group,310,0.699999999999999,unfair,4.0,1,1.1218242750001102,Four,3.0,1
wfpt.1,0,89,271,0.7273044868957979,271,1,Victim,group,312,0.30000000000000104,unfair,4.0,1,1.2398657399999098,Four,3.0,1
wfpt.1,0,90,272,1.7400408231998863,272,1,Victim,group,313,1.0,unfair,3.0,1,0.597113296999851,Three,1.0,1
wfpt.1,0,91,275,4.978846053226887,275,1,Victim,group,316,0.4,unfair,1.0,1,1.47073375700029,One,-1.0,1
wfpt.1,0,92,278,-2.405154373489327,278,1,Victim,alone,319,0.4,unfair,,1,0.8991938399999531,Alone,,1
wfpt.1,0,93,279,-0.7663191676377072,279,1,Victim,group,320,1.0,unfair,0.0,0,-3.6891861499998395,Zero,-3.0,1
wfpt.1,0,94,282,0.7890408231998864,282,1,Victim,group,323,0.800000000000001,unfair,3.0,1,0.887715303000277,Three,1.0,1
wfpt.1,0,95,283,1.2297044868957978,283,1,Victim,group,324,0.9,unfair,4.0,1,1.090620038,Four,3.0,1
wfpt.1,0,96,286,1.300673700353519,286,1,Victim,group,327,1.0,unfair,0.0,0,-1.24547463099998,Zero,-3.0,1
wfpt.1,0,97,288,-2.679424384769421,288,1,Victim,group,329,1.0,unfair,1.0,0,-1.1830902860001498,One,-1.0,1
wfpt.1,0,98,291,1.6280460532268874,291,1,Victim,group,332,0.699999999999999,unfair,1.0,1,1.471836446,One,-1.0,1
wfpt.1,0,99,293,-2.1661628044426786,293,1,Victim,group,334,0.9,unfair,2.0,1,0.958326677000059,Two,0.0,1
wfpt.1,0,100,295,1.1951044868957978,295,1,Victim,group,336,1.2,unfair,4.0,1,0.538199181999971,Four,3.0,1
wfpt.1,0,101,296,1.3559044868957977,296,1,Victim,group,337,0.9,unfair,4.0,1,2.6890161260003,Four,3.0,1
wfpt.1,0,102,298,3.067473700353519,298,1,Victim,group,339,0.0999999999999996,unfair,0.0,1,1.39225248100001,Zero,-3.0,1
wfpt.1,0,103,302,1.3441044868957976,302,1,Victim,group,343,0.6,unfair,4.0,1,1.0351591199996601,Four,3.0,1
wfpt.1,0,104,313,-1.5216243847694209,313,1,Victim,group,354,0.4,unfair,1.0,1,1.34915073599996,One,-1.0,1
wfpt.1,0,105,315,2.7956761620747543,315,1,Victim,group,356,1.3,unfair,2.0,1,0.9250662660001578,Two,0.0,1
wfpt.1,0,106,316,1.968476162074754,316,1,Victim,group,357,0.699999999999999,unfair,2.0,1,0.9733697070000741,Two,0.0,1
wfpt.1,0,107,323,1.7662761620747542,323,1,Victim,group,364,0.0999999999999996,unfair,2.0,1,3.67753904399979,Two,0.0,1
wfpt.1,0,108,324,0.8306408231998864,324,1,Victim,group,365,0.19999999999999898,unfair,3.0,1,0.988435151999965,Three,1.0,1
wfpt.1,0,109,325,1.449073700353519,325,1,Victim,group,366,1.1,unfair,0.0,0,-3.73511935599981,Zero,-3.0,1
wfpt.1,0,110,327,2.1673044868957976,327,1,Victim,group,368,1.3,unfair,4.0,1,0.604677384999832,Four,3.0,1
wfpt.1,0,111,329,2.4731296664834366,329,1,Victim,alone,370,0.6,unfair,,1,1.48918209200019,Alone,,1
wfpt.1,0,112,330,1.5052460532268874,330,1,Victim,group,371,0.6,unfair,1.0,1,2.17340477100015,One,-1.0,1
wfpt.1,1,0,4,1.0087029509142638,4,1,Victim,group,37,1.3,unfair,1.0,0,-1.5990411169996201,One,-1.0,1
wfpt.1,1,1,8,0.8387844888477756,8,1,Victim,group,41,0.5,unfair,4.0,1,1.79914280200001,Four,3.0,1
wfpt.1,1,2,9,1.4821844888477758,9,1,Victim,group,42,0.6,unfair,4.0,1,0.6858741000000921,Four,3.0,1
wfpt.1,1,3,21,3.383184488847776,21,1,Victim,group,54,0.30000000000000104,unfair,4.0,1,1.2205414619998,Four,3.0,1
wfpt.1,1,4,27,0.7091609087781336,27,1,Victim,group,61,0.30000000000000104,unfair,3.0,1,1.27127151400009,Three,1.0,1
wfpt.1,1,5,36,1.887520552305575,36,1,Victim,group,70,1.1,unfair,2.0,0,-1.5137629880000503,Two,0.0,1
wfpt.1,1,6,37,3.3571229718900675,37,1,Victim,group,71,0.19999999999999898,unfair,0.0,0,-2.1382530629998704,Zero,-3.0,1
wfpt.1,1,7,39,1.854520552305575,39,1,Victim,group,73,0.4,unfair,2.0,1,3.0557329540001805,Two,0.0,1
wfpt.1,1,8,40,0.8947229718900671,40,1,Victim,group,74,0.800000000000001,unfair,0.0,0,-1.46247351000011,Zero,-3.0,1
wfpt.1,1,9,46,0.8797844888477756,46,1,Victim,group,80,1.1,unfair,4.0,1,0.8515852710002041,Four,3.0,1
wfpt.1,1,10,48,1.4937609087781336,48,1,Victim,group,82,1.1,unfair,3.0,1,1.3551275560003,Three,1.0,1
wfpt.1,1,11,50,0.8797229718900672,50,1,Victim,group,85,0.5,unfair,0.0,0,-1.1666154200002,Zero,-3.0,1
wfpt.1,1,12,53,1.9731229718900671,53,1,Victim,group,88,1.3,unfair,0.0,0,-1.79348648299992,Zero,-3.0,1
wfpt.1,1,13,59,-0.993678208634028,59,1,Victim,group,94,0.19999999999999898,unfair,0.0,0,-3.5048431379996097,Zero,-3.0,1
wfpt.1,1,14,60,1.8641609087781337,60,1,Victim,group,95,0.6,unfair,3.0,1,1.9128253200001397,Three,1.0,1
wfpt.1,1,15,61,2.0777609087781337,61,1,Victim,group,96,1.1,unfair,3.0,1,3.3179213519997597,Three,1.0,1
wfpt.1,1,16,63,1.1249844888477758,63,1,Victim,group,98,1.2,unfair,4.0,1,0.7937433179999971,Four,3.0,1
wfpt.1,1,17,67,1.0397844888477756,67,1,Victim,group,102,1.1,unfair,4.0,1,1.6518605620003701,Four,3.0,1
wfpt.1,1,18,69,3.7341029509142643,69,1,Victim,group,104,1.2,unfair,1.0,0,-0.6447260850000021,One,-1.0,1
wfpt.1,1,19,75,3.3847229718900675,75,1,Victim,group,110,0.6,unfair,0.0,1,1.7778819549998799,Zero,-3.0,1
wfpt.1,1,20,76,-0.9032782086340281,76,1,Victim,group,111,0.699999999999999,unfair,0.0,0,-2.42136091400016,Zero,-3.0,1
wfpt.1,1,21,77,1.2832860774534038,77,1,Victim,alone,112,0.699999999999999,unfair,,1,1.78353129600009,Alone,,1
wfpt.1,1,22,78,1.2983205523055745,78,1,Victim,group,113,0.5,unfair,2.0,1,3.9366231290000497,Two,0.0,1
wfpt.1,1,23,79,1.6209229718900673,79,1,Victim,group,114,1.0,unfair,0.0,0,-3.7665715940002,Zero,-3.0,1
wfpt.1,1,24,80,2.5257609087781336,80,1,Victim,group,115,1.2,unfair,3.0,1,1.30982624500029,Three,1.0,1
wfpt.1,1,25,82,1.086886077453404,82,1,Victim,alone,117,0.19999999999999898,unfair,,1,1.70318450900004,Alone,,1
wfpt.1,1,26,83,2.1585205523055744,83,1,Victim,group,118,0.6,unfair,2.0,1,2.05922665699973,Two,0.0,1
wfpt.1,1,27,84,-1.6101396369342567,84,1,Victim,group,119,0.800000000000001,unfair,1.0,0,-0.8277993219999191,One,-1.0,1
wfpt.1,1,28,85,0.9607844888477756,85,1,Victim,group,120,0.19999999999999898,unfair,4.0,1,0.915229180000097,Four,3.0,1
wfpt.1,1,29,91,2.411702950914264,91,1,Victim,group,126,0.5,unfair,1.0,0,-0.7482226269999049,One,-1.0,1
wfpt.1,1,30,92,2.8723205523055753,92,1,Victim,group,127,1.1,unfair,2.0,1,1.53758974600032,Two,0.0,1
wfpt.1,1,31,96,0.9833609087781336,96,1,Victim,group,131,0.699999999999999,unfair,3.0,1,1.16166480299989,Three,1.0,1
wfpt.1,1,32,99,0.8364860774534038,99,1,Victim,alone,134,0.5,unfair,,1,2.2349489459997995,Alone,,1
wfpt.1,1,33,107,-2.759958420591262,107,1,Victim,group,142,0.800000000000001,unfair,2.0,1,1.27466806199982,Two,0.0,1
wfpt.1,1,34,108,-1.6887396369342564,108,1,Victim,group,143,1.1,unfair,1.0,1,2.03298247500015,One,-1.0,1
wfpt.1,1,35,111,-1.1109396369342566,111,1,Victim,group,146,0.5,unfair,1.0,1,3.2098315409998595,One,-1.0,1
wfpt.1,1,36,115,2.7565229718900675,115,1,Victim,group,150,0.5,unfair,0.0,0,-1.29828133000001,Zero,-3.0,1
wfpt.1,1,37,116,1.2959609087781336,116,1,Victim,group,151,0.699999999999999,unfair,3.0,1,0.8977511409998441,Three,1.0,1
wfpt.1,1,38,120,-0.7591584205912618,120,1,Victim,group,155,1.3,unfair,2.0,1,1.5804843000000801,Two,0.0,1
wfpt.1,1,39,121,3.404320552305575,121,1,Victim,group,156,1.2,unfair,2.0,1,1.08319998800016,Two,0.0,1
wfpt.1,1,40,123,1.7439609087781336,123,1,Victim,group,158,0.800000000000001,unfair,3.0,1,1.36377985100034,Three,1.0,1
wfpt.1,1,41,126,1.2537609087781338,126,1,Victim,group,161,0.800000000000001,unfair,3.0,1,1.1480066210001498,Three,1.0,1
wfpt.1,1,42,130,1.4761205523055745,130,1,Victim,group,165,0.699999999999999,unfair,2.0,1,1.7313139620000602,Two,0.0,1
wfpt.1,1,43,131,-0.5455584205912618,131,1,Victim,group,166,0.19999999999999898,unfair,2.0,1,1.35846848700021,Two,0.0,1
wfpt.1,1,44,137,1.4549205523055746,137,1,Victim,group,173,0.5,unfair,2.0,1,1.3669111790000001,Two,0.0,1
wfpt.1,1,45,141,4.705720552305574,141,1,Victim,group,177,0.9,unfair,2.0,1,1.05592788199965,Two,0.0,1
wfpt.1,1,46,142,0.9383229718900671,142,1,Victim,group,178,0.0999999999999996,unfair,0.0,0,-3.53024625599983,Zero,-3.0,1
wfpt.1,1,47,143,-3.648478208634028,143,1,Victim,group,179,0.5,unfair,0.0,0,-0.9611218029999691,Zero,-3.0,1
wfpt.1,1,48,144,0.8799844888477757,144,1,Victim,group,180,0.5,unfair,4.0,1,1.02328207599976,Four,3.0,1
wfpt.1,1,49,145,1.0465609087781336,145,1,Victim,group,181,0.800000000000001,unfair,3.0,1,2.7935966099999,Three,1.0,1
wfpt.1,1,50,147,1.1074860774534039,147,1,Victim,alone,183,1.2,unfair,,1,1.3229841299999,Alone,,1
wfpt.1,1,51,153,2.240502950914264,153,1,Victim,group,189,1.0,unfair,1.0,1,1.75967143100024,One,-1.0,1
wfpt.1,1,52,158,-0.904278208634028,158,1,Victim,group,195,0.5,unfair,0.0,0,-3.29773643199997,Zero,-3.0,1
wfpt.1,1,53,160,-1.319278208634028,160,1,Victim,group,197,0.4,unfair,0.0,0,-2.48310156700018,Zero,-3.0,1
wfpt.1,1,54,167,-0.8181396369342564,167,1,Victim,group,204,0.19999999999999898,unfair,1.0,1,1.7164352770000701,One,-1.0,1
wfpt.1,1,55,171,1.0641205523055746,171,1,Victim,group,208,1.0,unfair,2.0,1,1.03650961299991,Two,0.0,1
wfpt.1,1,56,174,0.9955609087781336,174,1,Victim,group,211,1.0,unfair,3.0,1,0.885543017000145,Three,1.0,1
wfpt.1,1,57,176,1.0661609087781336,176,1,Victim,group,213,0.800000000000001,unfair,3.0,1,1.2464671560001102,Three,1.0,1
wfpt.1,1,58,177,-3.1067396369342566,177,1,Victim,group,214,0.800000000000001,unfair,1.0,1,1.79794644899994,One,-1.0,1
wfpt.1,1,59,178,1.5363609087781338,178,1,Victim,group,215,0.0999999999999996,unfair,3.0,1,2.2786819159996403,Three,1.0,1
wfpt.1,1,60,182,0.6485844888477756,182,1,Victim,group,219,0.9,unfair,4.0,1,0.9425418410000931,Four,3.0,1
wfpt.1,1,61,183,2.323720552305575,183,1,Victim,group,220,0.30000000000000104,unfair,2.0,1,1.7835544930003402,Two,0.0,1
wfpt.1,1,62,185,1.1893609087781338,185,1,Victim,group,222,0.6,unfair,3.0,1,1.0902808979999499,Three,1.0,1
wfpt.1,1,63,186,1.7243844888477757,186,1,Victim,group,223,0.800000000000001,unfair,4.0,1,0.673259619000419,Four,3.0,1
wfpt.1,1,64,187,2.9713029509142643,187,1,Victim,group,224,1.0,unfair,1.0,1,2.9011245540000297,One,-1.0,1
wfpt.1,1,65,189,1.8477229718900672,189,1,Victim,group,226,0.9,unfair,0.0,0,-1.04578956900014,Zero,-3.0,1
wfpt.1,1,66,190,1.3427609087781338,190,1,Victim,group,227,1.1,unfair,3.0,1,1.09359047699991,Three,1.0,1
wfpt.1,1,67,191,0.9748860774534037,191,1,Victim,alone,228,1.0,unfair,,1,0.8756582969999731,Alone,,1
wfpt.1,1,68,197,2.882520552305575,197,1,Victim,group,234,0.6,unfair,2.0,1,1.26449812200008,Two,0.0,1
wfpt.1,1,69,198,0.9505609087781336,198,1,Victim,group,235,0.30000000000000104,unfair,3.0,1,0.582589133000056,Three,1.0,1
wfpt.1,1,70,200,-2.112678208634028,200,1,Victim,group,238,0.6,unfair,0.0,1,3.30847112999982,Zero,-3.0,1
wfpt.1,1,71,207,1.3791229718900673,207,1,Victim,group,246,1.2,unfair,0.0,0,-1.49180618299988,Zero,-3.0,1
wfpt.1,1,72,215,1.001486077453404,215,1,Victim,alone,255,0.9,unfair,,1,1.26734938100026,Alone,,1
wfpt.1,1,73,216,2.317760908778134,216,1,Victim,group,256,1.0,unfair,3.0,1,0.9428184550001791,Three,1.0,1
wfpt.1,1,74,220,1.2583609087781338,220,1,Victim,group,260,0.5,unfair,3.0,1,0.8277591629998821,Three,1.0,1
wfpt.1,1,75,221,2.5367029509142642,221,1,Victim,group,261,1.1,unfair,1.0,1,0.663900784999896,One,-1.0,1
wfpt.1,1,76,222,2.421122971890067,222,1,Victim,group,262,1.3,unfair,0.0,1,1.68029501300043,Zero,-3.0,1
wfpt.1,1,77,228,0.8357205523055746,228,1,Victim,group,268,0.6,unfair,2.0,1,1.5934958309999299,Two,0.0,1
wfpt.1,1,78,231,-2.4210782086340283,231,1,Victim,group,272,0.699999999999999,unfair,0.0,1,1.34199954999985,Zero,-3.0,1
wfpt.1,1,79,233,1.7505029509142642,233,1,Victim,group,274,0.699999999999999,unfair,1.0,1,1.4097690930002498,One,-1.0,1
wfpt.1,1,80,234,-1.3501396369342564,234,1,Victim,group,275,0.5,unfair,1.0,1,2.68114101800029,One,-1.0,1
wfpt.1,1,81,247,1.892286077453404,247,1,Victim,alone,288,0.5,unfair,,1,0.9377156380000999,Alone,,1
wfpt.1,1,82,249,-1.6120782086340282,249,1,Victim,group,290,1.0,unfair,0.0,1,2.56252443099993,Zero,-3.0,1
wfpt.1,1,83,252,0.8259609087781337,252,1,Victim,group,293,0.5,unfair,3.0,1,0.7504338240000831,Three,1.0,1
wfpt.1,1,84,254,1.9529609087781337,254,1,Victim,group,295,1.0,unfair,3.0,1,1.759725635,Three,1.0,1
wfpt.1,1,85,257,0.9683844888477756,257,1,Victim,group,298,0.19999999999999898,unfair,4.0,1,1.76320734599994,Four,3.0,1
wfpt.1,1,86,259,1.427784488847776,259,1,Victim,group,300,0.6,unfair,4.0,1,0.9872889120001669,Four,3.0,1
wfpt.1,1,87,263,3.1035205523055747,263,1,Victim,group,304,0.9,unfair,2.0,1,1.8265203169999,Two,0.0,1
wfpt.1,1,88,269,0.9941844888477757,269,1,Victim,group,310,0.699999999999999,unfair,4.0,1,1.1218242750001102,Four,3.0,1
wfpt.1,1,89,271,0.8539844888477756,271,1,Victim,group,312,0.30000000000000104,unfair,4.0,1,1.2398657399999098,Four,3.0,1
wfpt.1,1,90,272,1.192560908778134,272,1,Victim,group,313,1.0,unfair,3.0,1,0.597113296999851,Three,1.0,1
wfpt.1,1,91,275,-0.8023396369342565,275,1,Victim,group,316,0.4,unfair,1.0,1,1.47073375700029,One,-1.0,1
wfpt.1,1,92,278,1.0922860774534038,278,1,Victim,alone,319,0.4,unfair,,1,0.8991938399999531,Alone,,1
wfpt.1,1,93,279,-0.726078208634028,279,1,Victim,group,320,1.0,unfair,0.0,0,-3.6891861499998395,Zero,-3.0,1
wfpt.1,1,94,282,1.111960908778134,282,1,Victim,group,323,0.800000000000001,unfair,3.0,1,0.887715303000277,Three,1.0,1
wfpt.1,1,95,283,0.8329844888477755,283,1,Victim,group,324,0.9,unfair,4.0,1,1.090620038,Four,3.0,1
wfpt.1,1,96,286,0.9715229718900672,286,1,Victim,group,327,1.0,unfair,0.0,0,-1.24547463099998,Zero,-3.0,1
wfpt.1,1,97,288,-1.4871396369342564,288,1,Victim,group,329,1.0,unfair,1.0,0,-1.1830902860001498,One,-1.0,1
wfpt.1,1,98,291,0.8251029509142638,291,1,Victim,group,332,0.699999999999999,unfair,1.0,1,1.471836446,One,-1.0,1
wfpt.1,1,99,293,-2.460958420591262,293,1,Victim,group,334,0.9,unfair,2.0,1,0.958326677000059,Two,0.0,1
wfpt.1,1,100,295,1.5829844888477758,295,1,Victim,group,336,1.2,unfair,4.0,1,0.538199181999971,Four,3.0,1
wfpt.1,1,101,296,1.339584488847776,296,1,Victim,group,337,0.9,unfair,4.0,1,2.6890161260003,Four,3.0,1
wfpt.1,1,102,298,1.2373229718900671,298,1,Victim,group,339,0.0999999999999996,unfair,0.0,1,1.39225248100001,Zero,-3.0,1
wfpt.1,1,103,302,0.8243844888477756,302,1,Victim,group,343,0.6,unfair,4.0,1,1.0351591199996601,Four,3.0,1
wfpt.1,1,104,313,-0.7019396369342564,313,1,Victim,group,354,0.4,unfair,1.0,1,1.34915073599996,One,-1.0,1
wfpt.1,1,105,315,-1.1101584205912618,315,1,Victim,group,356,1.3,unfair,2.0,1,0.9250662660001578,Two,0.0,1
wfpt.1,1,106,316,1.1047205523055745,316,1,Victim,group,357,0.699999999999999,unfair,2.0,1,0.9733697070000741,Two,0.0,1
wfpt.1,1,107,323,3.0363205523055745,323,1,Victim,group,364,0.0999999999999996,unfair,2.0,1,3.67753904399979,Two,0.0,1
wfpt.1,1,108,324,1.3555609087781337,324,1,Victim,group,365,0.19999999999999898,unfair,3.0,1,0.988435151999965,Three,1.0,1
wfpt.1,1,109,325,2.9085229718900676,325,1,Victim,group,366,1.1,unfair,0.0,0,-3.73511935599981,Zero,-3.0,1
wfpt.1,1,110,327,0.7257844888477756,327,1,Victim,group,368,1.3,unfair,4.0,1,0.604677384999832,Four,3.0,1
wfpt.1,1,111,329,1.2176860774534037,329,1,Victim,alone,370,0.6,unfair,,1,1.48918209200019,Alone,,1
wfpt.1,1,112,330,-3.3005396369342566,330,1,Victim,group,371,0.6,unfair,1.0,1,2.17340477100015,One,-1.0,1
wfpt.2,0,0,333,-1.5498123224569107,333,2,Victim,group,32,0.19999999999999898,unfair,1.0,0,-0.9835824549991229,One,-1.0,1
wfpt.2,0,1,338,2.1099306700984974,338,2,Victim,group,37,1.3,unfair,1.0,0,-1.16052538300028,One,-1.0,1
wfpt.2,0,2,342,0.8361341930778062,342,2,Victim,group,41,0.5,unfair,4.0,1,2.7684591119996202,Four,3.0,1
wfpt.2,0,3,343,0.6521341930778063,343,2,Victim,group,42,0.6,unfair,4.0,1,0.8298534580007979,Four,3.0,1
wfpt.2,0,4,355,0.8337341930778063,355,2,Victim,group,54,0.30000000000000104,unfair,4.0,1,1.0185769629988501,Four,3.0,1
wfpt.2,0,5,361,0.6575341930778063,361,2,Victim,group,60,1.1,unfair,4.0,1,0.610354211001322,Four,3.0,1
wfpt.2,0,6,362,2.5791023941318487,362,2,Victim,group,61,0.30000000000000104,unfair,3.0,1,0.5896461659995109,Three,1.0,1
wfpt.2,0,7,371,-1.7692499296356594,371,2,Victim,group,70,1.1,unfair,2.0,1,1.01512197800002,Two,0.0,1
wfpt.2,0,8,372,1.8072148588245938,372,2,Victim,group,71,0.19999999999999898,unfair,0.0,0,-0.6800657259991569,Zero,-3.0,1
wfpt.2,0,9,373,-0.8200499296356596,373,2,Victim,group,73,0.4,unfair,2.0,1,1.2377631139988798,Two,0.0,1
wfpt.2,0,10,374,0.7508148588245935,374,2,Victim,group,74,0.800000000000001,unfair,0.0,0,-0.685028154000975,Zero,-3.0,1
wfpt.2,0,11,380,1.2211341930778064,380,2,Victim,group,80,1.1,unfair,4.0,1,0.6006815729997471,Four,3.0,1
wfpt.2,0,12,382,1.0963023941318486,382,2,Victim,group,82,1.1,unfair,3.0,1,0.6805088000000981,Three,1.0,1
wfpt.2,0,13,383,-0.7688123224569106,383,2,Victim,group,83,0.800000000000001,unfair,1.0,0,-0.7298503649999469,One,-1.0,1
wfpt.2,0,14,385,1.7944148588245934,385,2,Victim,group,85,0.5,unfair,0.0,0,-0.512251744999958,Zero,-3.0,1
wfpt.2,0,15,388,0.4808148588245935,388,2,Victim,group,88,1.3,unfair,0.0,0,-0.597905777000051,Zero,-3.0,1
wfpt.2,0,16,394,0.5236148588245935,394,2,Victim,group,94,0.19999999999999898,unfair,0.0,0,-1.8398911610002,Zero,-3.0,1
wfpt.2,0,17,395,0.7819023941318486,395,2,Victim,group,95,0.6,unfair,3.0,1,0.574585682999896,Three,1.0,1
wfpt.2,0,18,396,1.7809023941318485,396,2,Victim,group,96,1.1,unfair,3.0,1,0.457103990000178,Three,1.0,1
wfpt.2,0,19,398,0.6891341930778063,398,2,Victim,group,98,1.2,unfair,4.0,1,0.5485739020004979,Four,3.0,1
wfpt.2,0,20,402,0.5745341930778063,402,2,Victim,group,102,1.1,unfair,4.0,1,0.460242481998648,Four,3.0,1
wfpt.2,0,21,404,0.8327306700984973,404,2,Victim,group,104,1.2,unfair,1.0,0,-0.650492103000943,One,-1.0,1
wfpt.2,0,22,410,-1.4506800074887032,410,2,Victim,group,110,0.6,unfair,0.0,0,-0.660368026001379,Zero,-3.0,1
wfpt.2,0,23,411,1.1462148588245937,411,2,Victim,group,111,0.699999999999999,unfair,0.0,0,-0.63967102100105,Zero,-3.0,1
wfpt.2,0,24,412,0.8546172623939242,412,2,Victim,alone,112,0.699999999999999,unfair,,1,1.47605309800019,Alone,,1
wfpt.2,0,25,413,-0.8380499296356595,413,2,Victim,group,113,0.5,unfair,2.0,1,1.24139749599999,Two,0.0,1
wfpt.2,0,26,414,-1.0212800074887032,414,2,Victim,group,114,1.0,unfair,0.0,0,-0.6454876600000721,Zero,-3.0,1
wfpt.2,0,27,415,0.41870239413184857,415,2,Victim,group,115,1.2,unfair,3.0,1,0.587922040000194,Three,1.0,1
wfpt.2,0,28,417,1.1070172623939243,417,2,Victim,alone,117,0.19999999999999898,unfair,,1,0.755249042998912,Alone,,1
wfpt.2,0,29,418,1.3310700440047643,418,2,Victim,group,118,0.6,unfair,2.0,1,1.08638047099885,Two,0.0,1
wfpt.2,0,30,419,1.4787306700984972,419,2,Victim,group,119,0.800000000000001,unfair,1.0,0,-4.44268126299903,One,-1.0,1
wfpt.2,0,31,420,1.0899341930778061,420,2,Victim,group,120,0.19999999999999898,unfair,4.0,1,0.50447317599901,Four,3.0,1
wfpt.2,0,32,426,1.0253306700984974,426,2,Victim,group,126,0.5,unfair,1.0,0,-0.509000504998767,One,-1.0,1
wfpt.2,0,33,427,0.5916700440047642,427,2,Victim,group,127,1.1,unfair,2.0,1,1.1908189620007799,Two,0.0,1
wfpt.2,0,34,431,0.8791023941318485,431,2,Victim,group,131,0.699999999999999,unfair,3.0,1,0.868232673999955,Three,1.0,1
wfpt.2,0,35,434,1.2674172623939244,434,2,Victim,alone,134,0.5,unfair,,1,1.6534923019989898,Alone,,1
wfpt.2,0,36,442,3.3612700440047636,442,2,Victim,group,142,0.800000000000001,unfair,2.0,1,1.02105950399891,Two,0.0,1
wfpt.2,0,37,443,0.9861306700984972,443,2,Victim,group,143,1.1,unfair,1.0,0,-1.55326991400034,One,-1.0,1
wfpt.2,0,38,446,-3.5554123224569105,446,2,Victim,group,146,0.5,unfair,1.0,0,-0.851783023999815,One,-1.0,1
wfpt.2,0,39,450,1.2998148588245937,450,2,Victim,group,150,0.5,unfair,0.0,0,-0.5458087169990901,Zero,-3.0,1
wfpt.2,0,40,451,1.5889023941318485,451,2,Victim,group,151,0.699999999999999,unfair,3.0,1,0.5613530249993349,Three,1.0,1
wfpt.2,0,41,455,0.6708700440047641,455,2,Victim,group,155,1.3,unfair,2.0,1,2.30716811599996,Two,0.0,1
wfpt.2,0,42,456,0.5380700440047641,456,2,Victim,group,156,1.2,unfair,2.0,1,1.30648560500049,Two,0.0,1
wfpt.2,0,43,458,0.9921023941318484,458,2,Victim,group,158,0.800000000000001,unfair,3.0,1,1.13793771100063,Three,1.0,1
wfpt.2,0,44,461,0.8343023941318486,461,2,Victim,group,161,0.800000000000001,unfair,3.0,1,0.655635789998996,Three,1.0,1
wfpt.2,0,45,465,1.3742700440047642,465,2,Victim,group,165,0.699999999999999,unfair,2.0,1,0.8503740799988009,Two,0.0,1
wfpt.2,0,46,466,0.9554700440047643,466,2,Victim,group,166,0.19999999999999898,unfair,2.0,1,1.4430083179995599,Two,0.0,1
wfpt.2,0,47,469,1.0480700440047643,469,2,Victim,group,169,0.5,unfair,2.0,1,0.997694403000423,Two,0.0,1
wfpt.2,0,48,473,0.7466700440047642,473,2,Victim,group,173,0.5,unfair,2.0,1,0.8783792960002759,Two,0.0,1
wfpt.2,0,49,475,2.168270044004764,475,2,Victim,group,177,0.9,unfair,2.0,1,1.12981229300021,Two,0.0,1
wfpt.2,0,50,476,2.6472148588245936,476,2,Victim,group,178,0.0999999999999996,unfair,0.0,0,-1.579667693999,Zero,-3.0,1
wfpt.2,0,51,477,-2.1678800074887032,477,2,Victim,group,179,0.5,unfair,0.0,0,-2.66082013499908,Zero,-3.0,1
wfpt.2,0,52,478,1.262334193077806,478,2,Victim,group,180,0.5,unfair,4.0,1,0.5203921600004829,Four,3.0,1
wfpt.2,0,53,479,0.8251023941318486,479,2,Victim,group,181,0.800000000000001,unfair,3.0,1,0.696568793999177,Three,1.0,1
wfpt.2,0,54,481,1.1464172623939244,481,2,Victim,alone,183,1.2,unfair,,1,2.00894294299906,Alone,,1
wfpt.2,0,55,485,0.5533306700984972,485,2,Victim,group,189,1.0,unfair,1.0,0,-0.510318045000531,One,-1.0,1
wfpt.2,0,56,491,1.0036148588245934,491,2,Victim,group,195,0.5,unfair,0.0,0,-0.6276048240015369,Zero,-3.0,1
wfpt.2,0,57,493,-2.2574800074887036,493,2,Victim,group,197,0.4,unfair,0.0,0,-2.29915333499957,Zero,-3.0,1
wfpt.2,0,58,500,0.8933306700984973,500,2,Victim,group,204,0.19999999999999898,unfair,1.0,0,-0.646891804999541,One,-1.0,1
wfpt.2,0,59,504,-0.9434499296356595,504,2,Victim,group,208,1.0,unfair,2.0,1,1.0010549710004901,Two,0.0,1
wfpt.2,0,60,507,2.324102394131849,507,2,Victim,group,211,1.0,unfair,3.0,1,1.0771469249994001,Three,1.0,1
wfpt.2,0,61,509,1.0917023941318487,509,2,Victim,group,213,0.800000000000001,unfair,3.0,1,0.5965297000002471,Three,1.0,1
wfpt.2,0,62,510,-0.7172123224569107,510,2,Victim,group,214,0.800000000000001,unfair,1.0,0,-0.576160006999999,One,-1.0,1
wfpt.2,0,63,511,0.5457023941318486,511,2,Victim,group,215,0.0999999999999996,unfair,3.0,1,0.457879369001603,Three,1.0,1
wfpt.2,0,64,515,0.8175341930778063,515,2,Victim,group,219,0.9,unfair,4.0,1,0.6045144139989129,Four,3.0,1
wfpt.2,0,65,516,-1.1402499296356596,516,2,Victim,group,220,0.30000000000000104,unfair,2.0,1,0.905163363000611,Two,0.0,1
wfpt.2,0,66,518,0.6029023941318485,518,2,Victim,group,222,0.6,unfair,3.0,1,0.7402620630000458,Three,1.0,1
wfpt.2,0,67,519,1.0687341930778063,519,2,Victim,group,223,0.800000000000001,unfair,4.0,1,0.773266303998753,Four,3.0,1
wfpt.2,0,68,520,-0.8184123224569106,520,2,Victim,group,224,1.0,unfair,1.0,0,-1.52787653500127,One,-1.0,1
wfpt.2,0,69,522,-2.0562800074887035,522,2,Victim,group,226,0.9,unfair,0.0,0,-1.88039121300062,Zero,-3.0,1
wfpt.2,0,70,523,1.0933023941318485,523,2,Victim,group,227,1.1,unfair,3.0,1,0.521106774000145,Three,1.0,1
wfpt.2,0,71,524,0.4344172623939242,524,2,Victim,alone,228,1.0,unfair,,1,0.5282850559997311,Alone,,1
wfpt.2,0,72,529,0.6664700440047642,529,2,Victim,group,234,0.6,unfair,2.0,1,0.9965874059998899,Two,0.0,1
wfpt.2,0,73,530,-0.5184719702169891,530,2,Victim,group,235,0.30000000000000104,unfair,3.0,1,0.694948115000443,Three,1.0,1
wfpt.2,0,74,532,1.0396700440047644,532,2,Victim,group,237,0.4,unfair,2.0,1,1.24709061000067,Two,0.0,1
wfpt.2,0,75,533,-0.8926800074887032,533,2,Victim,group,238,0.6,unfair,0.0,0,-2.66539864700098,Zero,-3.0,1
wfpt.2,0,76,541,-1.1736800074887033,541,2,Victim,group,246,1.2,unfair,0.0,0,-0.560205346000657,Zero,-3.0,1
wfpt.2,0,77,550,-0.8040819398812469,550,2,Victim,alone,255,0.9,unfair,,1,1.03105612200125,Alone,,1
wfpt.2,0,78,551,1.4473023941318484,551,2,Victim,group,256,1.0,unfair,3.0,1,0.6788873210007299,Three,1.0,1
wfpt.2,0,79,555,0.7127023941318485,555,2,Victim,group,260,0.5,unfair,3.0,1,1.1604717299996998,Three,1.0,1
wfpt.2,0,80,556,2.912530670098498,556,2,Victim,group,261,1.1,unfair,1.0,0,-0.7743291329989008,One,-1.0,1
wfpt.2,0,81,557,2.3500148588245935,557,2,Victim,group,262,1.3,unfair,0.0,0,-0.5667526880006329,Zero,-3.0,1
wfpt.2,0,82,563,3.2062700440047642,563,2,Victim,group,268,0.6,unfair,2.0,1,1.0804333149990302,Two,0.0,1
wfpt.2,0,83,567,-0.9424800074887033,567,2,Victim,group,272,0.699999999999999,unfair,0.0,0,-0.38556393900034897,Zero,-3.0,1
wfpt.2,0,84,569,0.6933306700984974,569,2,Victim,group,274,0.699999999999999,unfair,1.0,0,-0.537114032000318,One,-1.0,1
wfpt.2,0,85,570,-0.7134123224569107,570,2,Victim,group,275,0.5,unfair,1.0,0,-4.34317708799972,One,-1.0,1
wfpt.2,0,86,583,1.2684172623939243,583,2,Victim,alone,288,0.5,unfair,,1,0.6017881979987579,Alone,,1
wfpt.2,0,87,585,-1.3176800074887032,585,2,Victim,group,290,1.0,unfair,0.0,0,-0.425661107999986,Zero,-3.0,1
wfpt.2,0,88,588,-2.378671970216989,588,2,Victim,group,293,0.5,unfair,3.0,1,0.710542397999234,Three,1.0,1
wfpt.2,0,89,590,1.6341023941318487,590,2,Victim,group,295,1.0,unfair,3.0,1,1.2551129610001202,Three,1.0,1
wfpt.2,0,90,593,0.8487341930778063,593,2,Victim,group,298,0.19999999999999898,unfair,4.0,1,0.493964233999577,Four,3.0,1
wfpt.2,0,91,595,0.8505341930778063,595,2,Victim,group,300,0.6,unfair,4.0,1,0.415878152000005,Four,3.0,1
wfpt.2,0,92,599,1.9484700440047644,599,2,Victim,group,304,0.9,unfair,2.0,1,2.849625113,Two,0.0,1
wfpt.2,0,93,605,0.5067341930778062,605,2,Victim,group,310,0.699999999999999,unfair,4.0,1,0.5393594149991261,Four,3.0,1
wfpt.2,0,94,607,2.0081341930778063,607,2,Victim,group,312,0.30000000000000104,unfair,4.0,1,0.5391256849998171,Four,3.0,1
wfpt.2,0,95,608,0.4985023941318486,608,2,Victim,group,313,1.0,unfair,3.0,1,0.727084239999385,Three,1.0,1
wfpt.2,0,96,611,0.5263306700984972,611,2,Victim,group,316,0.4,unfair,1.0,0,-0.519208697998693,One,-1.0,1
wfpt.2,0,97,614,0.4596172623939242,614,2,Victim,alone,319,0.4,unfair,,1,1.02316547100054,Alone,,1
wfpt.2,0,98,615,-0.6686800074887033,615,2,Victim,group,320,1.0,unfair,0.0,0,-0.6291417669999649,Zero,-3.0,1
wfpt.2,0,99,618,0.4749023941318486,618,2,Victim,group,323,0.800000000000001,unfair,3.0,1,0.7948845129994879,Three,1.0,1
wfpt.2,0,100,619,0.7541341930778063,619,2,Victim,group,324,0.9,unfair,4.0,1,0.759468618000028,Four,3.0,1
wfpt.2,0,101,622,3.6214148588245934,622,2,Victim,group,327,1.0,unfair,0.0,0,-0.649750366999797,Zero,-3.0,1
wfpt.2,0,102,624,1.0015306700984974,624,2,Victim,group,329,1.0,unfair,1.0,0,-0.5577461850007239,One,-1.0,1
wfpt.2,0,103,627,-0.8332123224569107,627,2,Victim,group,332,0.699999999999999,unfair,1.0,0,-0.644939590998547,One,-1.0,1
wfpt.2,0,104,629,0.6416700440047642,629,2,Victim,group,334,0.9,unfair,2.0,1,0.901502627000809,Two,0.0,1
wfpt.2,0,105,631,1.3769341930778063,631,2,Victim,group,336,1.2,unfair,4.0,1,0.44923009500053,Four,3.0,1
wfpt.2,0,106,632,0.6263341930778061,632,2,Victim,group,337,0.9,unfair,4.0,1,0.6335778869997739,Four,3.0,1
wfpt.2,0,107,634,-0.5108800074887032,634,2,Victim,group,339,0.0999999999999996,unfair,0.0,0,-0.5945492959999681,Zero,-3.0,1
wfpt.2,0,108,638,0.5851341930778062,638,2,Victim,group,343,0.6,unfair,4.0,1,0.5944726620000439,Four,3.0,1
wfpt.2,0,109,649,-1.7300123224569106,649,2,Victim,group,354,0.4,unfair,1.0,0,-0.564583397999741,One,-1.0,1
wfpt.2,0,110,651,-0.5424499296356595,651,2,Victim,group,356,1.3,unfair,2.0,1,0.860397220998493,Two,0.0,1
wfpt.2,0,111,652,0.6520700440047642,652,2,Victim,group,357,0.699999999999999,unfair,2.0,1,1.00023552300081,Two,0.0,1
wfpt.2,0,112,659,0.4690700440047642,659,2,Victim,group,364,0.0999999999999996,unfair,2.0,1,1.0717497410005299,Two,0.0,1
wfpt.2,0,113,660,0.5367023941318485,660,2,Victim,group,365,0.19999999999999898,unfair,3.0,1,0.617685867999171,Three,1.0,1
wfpt.2,0,114,661,-2.4660800074887037,661,2,Victim,group,366,1.1,unfair,0.0,0,-0.6290273770009661,Zero,-3.0,1
wfpt.2,0,115,663,1.8975341930778065,663,2,Victim,group,368,1.3,unfair,4.0,1,0.556500323000364,Four,3.0,1
wfpt.2,0,116,665,0.9782172623939244,665,2,Victim,alone,370,0.6,unfair,,1,0.7092842809997819,Alone,,1
wfpt.2,0,117,666,-0.7792123224569107,666,2,Victim,group,371,0.6,unfair,1.0,0,-0.44293505699897706,One,-1.0,1
wfpt.2,0,118,670,-1.2100123224569108,670,2,Victim,group,375,0.4,unfair,1.0,0,-0.612632481001128,One,-1.0,1
wfpt.2,0,119,675,-1.4464123224569108,675,2,Victim,group,380,0.6,unfair,1.0,0,-2.59961031700004,One,-1.0,1
wfpt.2,0,120,679,1.1470172623939243,679,2,Victim,alone,384,0.19999999999999898,unfair,,1,1.04670287699992,Alone,,1
wfpt.2,0,121,680,0.8509341930778063,680,2,Victim,group,385,0.699999999999999,unfair,4.0,1,0.541623074999734,Four,3.0,1
wfpt.2,0,122,688,0.42290239413184855,688,2,Victim,group,393,1.0,unfair,3.0,1,0.5657209119999611,Three,1.0,1
wfpt.2,0,123,691,1.312334193077806,691,2,Victim,group,396,1.2,unfair,4.0,1,0.5258849620004179,Four,3.0,1
wfpt.2,0,124,692,0.6512172623939242,692,2,Victim,alone,397,0.800000000000001,unfair,,1,0.7166121039990679,Alone,,1
wfpt.2,0,125,701,0.7752172623939242,701,2,Victim,alone,406,0.800000000000001,unfair,,1,1.56661252000049,Alone,,1
wfpt.2,0,126,705,0.8985341930778062,705,2,Victim,group,410,1.0,unfair,4.0,1,0.7247726519999559,Four,3.0,1
wfpt.2,0,127,708,1.5668172623939245,708,2,Victim,alone,413,0.5,unfair,,1,0.550499218999903,Alone,,1
wfpt.2,0,128,712,0.9589023941318485,712,2,Victim,group,417,1.2,unfair,3.0,1,0.7566107060010842,Three,1.0,1
wfpt.2,0,129,713,1.2226700440047642,713,2,Victim,group,418,1.1,unfair,2.0,1,0.8939455450017699,Two,0.0,1
wfpt.2,0,130,721,1.2161341930778062,721,2,Victim,group,426,0.4,unfair,4.0,1,0.9321080549998442,Four,3.0,1
wfpt.2,0,131,725,0.8259306700984973,725,2,Victim,group,430,0.800000000000001,unfair,1.0,0,-1.4924586199995198,One,-1.0,1
wfpt.2,0,132,727,-1.0782123224569107,727,2,Victim,group,432,0.9,unfair,1.0,0,-0.5853157809997359,One,-1.0,1
wfpt.2,0,133,731,1.0012172623939244,731,2,Victim,alone,436,0.19999999999999898,unfair,,1,1.7805416520004698,Alone,,1
wfpt.2,0,134,732,1.2739306700984971,732,2,Victim,group,437,0.5,unfair,1.0,0,-0.483735505000368,One,-1.0,1
wfpt.2,0,135,733,-0.4714800074887032,733,2,Victim,group,438,0.4,unfair,0.0,0,-0.495661485998426,Zero,-3.0,1
wfpt.2,0,136,734,0.7965341930778063,734,2,Victim,group,439,1.1,unfair,4.0,1,0.5812417729994189,Four,3.0,1
wfpt.2,0,137,737,0.8062700440047642,737,2,Victim,group,442,0.699999999999999,unfair,2.0,1,1.02924353500021,Two,0.0,1
wfpt.2,0,138,739,-0.47728000748870325,739,2,Victim,group,444,0.4,unfair,0.0,0,-0.6159182609990239,Zero,-3.0,1
wfpt.2,0,139,742,0.8346172623939242,742,2,Victim,alone,447,0.0999999999999996,unfair,,1,0.512909649998619,Alone,,1
wfpt.2,1,0,333,-1.6391205599595864,333,2,Victim,group,32,0.19999999999999898,unfair,1.0,0,-0.9835824549991229,One,-1.0,1
wfpt.2,1,1,338,-0.7773205599595864,338,2,Victim,group,37,1.3,unfair,1.0,0,-1.16052538300028,One,-1.0,1
wfpt.2,1,2,342,-0.39258018193520694,342,2,Victim,group,41,0.5,unfair,4.0,1,2.7684591119996202,Four,3.0,1
wfpt.2,1,3,343,0.6349287949076601,343,2,Victim,group,42,0.6,unfair,4.0,1,0.8298534580007979,Four,3.0,1
wfpt.2,1,4,355,0.70892879490766,355,2,Victim,group,54,0.30000000000000104,unfair,4.0,1,1.0185769629988501,Four,3.0,1
wfpt.2,1,5,361,0.52292879490766,361,2,Victim,group,60,1.1,unfair,4.0,1,0.610354211001322,Four,3.0,1
wfpt.2,1,6,362,0.5050621708566946,362,2,Victim,group,61,0.30000000000000104,unfair,3.0,1,0.5896461659995109,Three,1.0,1
wfpt.2,1,7,371,1.311673969118194,371,2,Victim,group,70,1.1,unfair,2.0,1,1.01512197800002,Two,0.0,1
wfpt.2,1,8,372,0.8861012655062723,372,2,Victim,group,71,0.19999999999999898,unfair,0.0,0,-0.6800657259991569,Zero,-3.0,1
wfpt.2,1,9,373,1.089673969118194,373,2,Victim,group,73,0.4,unfair,2.0,1,1.2377631139988798,Two,0.0,1
wfpt.2,1,10,374,0.8907012655062723,374,2,Victim,group,74,0.800000000000001,unfair,0.0,0,-0.685028154000975,Zero,-3.0,1
wfpt.2,1,11,380,1.07512879490766,380,2,Victim,group,80,1.1,unfair,4.0,1,0.6006815729997471,Four,3.0,1
wfpt.2,1,12,382,0.5260621708566946,382,2,Victim,group,82,1.1,unfair,3.0,1,0.6805088000000981,Three,1.0,1
wfpt.2,1,13,383,2.06396010903297,383,2,Victim,group,83,0.800000000000001,unfair,1.0,0,-0.7298503649999469,One,-1.0,1
wfpt.2,1,14,385,-0.7208319557119898,385,2,Victim,group,85,0.5,unfair,0.0,0,-0.512251744999958,Zero,-3.0,1
wfpt.2,1,15,388,-0.4432319557119897,388,2,Victim,group,88,1.3,unfair,0.0,0,-0.597905777000051,Zero,-3.0,1
wfpt.2,1,16,394,-0.5098319557119897,394,2,Victim,group,94,0.19999999999999898,unfair,0.0,0,-1.8398911610002,Zero,-3.0,1
wfpt.2,1,17,395,0.7576621708566946,395,2,Victim,group,95,0.6,unfair,3.0,1,0.574585682999896,Three,1.0,1
wfpt.2,1,18,396,0.6234621708566945,396,2,Victim,group,96,1.1,unfair,3.0,1,0.457103990000178,Three,1.0,1
wfpt.2,1,19,398,-1.1533801819352067,398,2,Victim,group,98,1.2,unfair,4.0,1,0.5485739020004979,Four,3.0,1
wfpt.2,1,20,402,1.64012879490766,402,2,Victim,group,102,1.1,unfair,4.0,1,0.460242481998648,Four,3.0,1
wfpt.2,1,21,404,0.7421601090329697,404,2,Victim,group,104,1.2,unfair,1.0,0,-0.650492103000943,One,-1.0,1
wfpt.2,1,22,410,-0.4420319557119897,410,2,Victim,group,110,0.6,unfair,0.0,0,-0.660368026001379,Zero,-3.0,1
wfpt.2,1,23,411,0.8989012655062724,411,2,Victim,group,111,0.699999999999999,unfair,0.0,0,-0.63967102100105,Zero,-3.0,1
wfpt.2,1,24,412,2.2246727969228743,412,2,Victim,alone,112,0.699999999999999,unfair,,1,1.47605309800019,Alone,,1
wfpt.2,1,25,413,1.2392739691181942,413,2,Victim,group,113,0.5,unfair,2.0,1,1.24139749599999,Two,0.0,1
wfpt.2,1,26,414,1.9755012655062723,414,2,Victim,group,114,1.0,unfair,0.0,0,-0.6454876600000721,Zero,-3.0,1
wfpt.2,1,27,415,1.3356621708566945,415,2,Victim,group,115,1.2,unfair,3.0,1,0.587922040000194,Three,1.0,1
wfpt.2,1,28,417,0.5218727969228742,417,2,Victim,alone,117,0.19999999999999898,unfair,,1,0.755249042998912,Alone,,1
wfpt.2,1,29,418,0.9984739691181941,418,2,Victim,group,118,0.6,unfair,2.0,1,1.08638047099885,Two,0.0,1
wfpt.2,1,30,419,-1.5345205599595864,419,2,Victim,group,119,0.800000000000001,unfair,1.0,0,-4.44268126299903,One,-1.0,1
wfpt.2,1,31,420,0.70032879490766,420,2,Victim,group,120,0.19999999999999898,unfair,4.0,1,0.50447317599901,Four,3.0,1
wfpt.2,1,32,426,-0.6567205599595864,426,2,Victim,group,126,0.5,unfair,1.0,0,-0.509000504998767,One,-1.0,1
wfpt.2,1,33,427,2.7648739691181943,427,2,Victim,group,127,1.1,unfair,2.0,1,1.1908189620007799,Two,0.0,1
wfpt.2,1,34,431,0.6842621708566945,431,2,Victim,group,131,0.699999999999999,unfair,3.0,1,0.868232673999955,Three,1.0,1
wfpt.2,1,35,434,-0.8189251553132942,434,2,Victim,alone,134,0.5,unfair,,1,1.6534923019989898,Alone,,1
wfpt.2,1,36,442,-0.820641746380607,442,2,Victim,group,142,0.800000000000001,unfair,2.0,1,1.02105950399891,Two,0.0,1
wfpt.2,1,37,443,-0.7553205599595864,443,2,Victim,group,143,1.1,unfair,1.0,0,-1.55326991400034,One,-1.0,1
wfpt.2,1,38,446,-0.5745205599595864,446,2,Victim,group,146,0.5,unfair,1.0,0,-0.851783023999815,One,-1.0,1
wfpt.2,1,39,450,-0.7310319557119898,450,2,Victim,group,150,0.5,unfair,0.0,0,-0.5458087169990901,Zero,-3.0,1
wfpt.2,1,40,451,0.4968621708566946,451,2,Victim,group,151,0.699999999999999,unfair,3.0,1,0.5613530249993349,Three,1.0,1
wfpt.2,1,41,455,2.7042739691181943,455,2,Victim,group,155,1.3,unfair,2.0,1,2.30716811599996,Two,0.0,1
wfpt.2,1,42,456,1.425673969118194,456,2,Victim,group,156,1.2,unfair,2.0,1,1.30648560500049,Two,0.0,1
wfpt.2,1,43,458,0.8748621708566946,458,2,Victim,group,158,0.800000000000001,unfair,3.0,1,1.13793771100063,Three,1.0,1
wfpt.2,1,44,461,0.8076621708566947,461,2,Victim,group,161,0.800000000000001,unfair,3.0,1,0.655635789998996,Three,1.0,1
wfpt.2,1,45,465,0.9684739691181943,465,2,Victim,group,165,0.699999999999999,unfair,2.0,1,0.8503740799988009,Two,0.0,1
wfpt.2,1,46,466,-0.5998417463806072,466,2,Victim,group,166,0.19999999999999898,unfair,2.0,1,1.4430083179995599,Two,0.0,1
wfpt.2,1,47,469,0.8356739691181941,469,2,Victim,group,169,0.5,unfair,2.0,1,0.997694403000423,Two,0.0,1
wfpt.2,1,48,473,-0.998241746380607,473,2,Victim,group,173,0.5,unfair,2.0,1,0.8783792960002759,Two,0.0,1
wfpt.2,1,49,475,0.5516739691181942,475,2,Victim,group,177,0.9,unfair,2.0,1,1.12981229300021,Two,0.0,1
wfpt.2,1,50,476,2.091101265506272,476,2,Victim,group,178,0.0999999999999996,unfair,0.0,0,-1.579667693999,Zero,-3.0,1
wfpt.2,1,51,477,-0.5810319557119897,477,2,Victim,group,179,0.5,unfair,0.0,0,-2.66082013499908,Zero,-3.0,1
wfpt.2,1,52,478,0.91832879490766,478,2,Victim,group,180,0.5,unfair,4.0,1,0.5203921600004829,Four,3.0,1
wfpt.2,1,53,479,-0.9559167695934653,479,2,Victim,group,181,0.800000000000001,unfair,3.0,1,0.696568793999177,Three,1.0,1
wfpt.2,1,54,481,0.7888727969228744,481,2,Victim,alone,183,1.2,unfair,,1,2.00894294299906,Alone,,1
wfpt.2,1,55,485,-0.39292055995958636,485,2,Victim,group,189,1.0,unfair,1.0,0,-0.510318045000531,One,-1.0,1
wfpt.2,1,56,491,-0.5494319557119898,491,2,Victim,group,195,0.5,unfair,0.0,0,-0.6276048240015369,Zero,-3.0,1
wfpt.2,1,57,493,-1.2210319557119897,493,2,Victim,group,197,0.4,unfair,0.0,0,-2.29915333499957,Zero,-3.0,1
wfpt.2,1,58,500,-0.6825205599595864,500,2,Victim,group,204,0.19999999999999898,unfair,1.0,0,-0.646891804999541,One,-1.0,1
wfpt.2,1,59,504,1.928873969118194,504,2,Victim,group,208,1.0,unfair,2.0,1,1.0010549710004901,Two,0.0,1
wfpt.2,1,60,507,0.5336621708566945,507,2,Victim,group,211,1.0,unfair,3.0,1,1.0771469249994001,Three,1.0,1
wfpt.2,1,61,509,0.6790621708566946,509,2,Victim,group,213,0.800000000000001,unfair,3.0,1,0.5965297000002471,Three,1.0,1
wfpt.2,1,62,510,-1.0003205599595864,510,2,Victim,group,214,0.800000000000001,unfair,1.0,0,-0.576160006999999,One,-1.0,1
wfpt.2,1,63,511,-0.6421167695934651,511,2,Victim,group,215,0.0999999999999996,unfair,3.0,1,0.457879369001603,Three,1.0,1
wfpt.2,1,64,515,0.7411287949076599,515,2,Victim,group,219,0.9,unfair,4.0,1,0.6045144139989129,Four,3.0,1
wfpt.2,1,65,516,-0.43484174638060713,516,2,Victim,group,220,0.30000000000000104,unfair,2.0,1,0.905163363000611,Two,0.0,1
wfpt.2,1,66,518,0.5538621708566945,518,2,Victim,group,222,0.6,unfair,3.0,1,0.7402620630000458,Three,1.0,1
wfpt.2,1,67,519,0.7459287949076601,519,2,Victim,group,223,0.800000000000001,unfair,4.0,1,0.773266303998753,Four,3.0,1
wfpt.2,1,68,520,-2.854920559959586,520,2,Victim,group,224,1.0,unfair,1.0,0,-1.52787653500127,One,-1.0,1
wfpt.2,1,69,522,0.5325012655062723,522,2,Victim,group,226,0.9,unfair,0.0,0,-1.88039121300062,Zero,-3.0,1
wfpt.2,1,70,523,0.9888621708566945,523,2,Victim,group,227,1.1,unfair,3.0,1,0.521106774000145,Three,1.0,1
wfpt.2,1,71,524,0.7438727969228742,524,2,Victim,alone,228,1.0,unfair,,1,0.5282850559997311,Alone,,1
wfpt.2,1,72,529,0.5222739691181941,529,2,Victim,group,234,0.6,unfair,2.0,1,0.9965874059998899,Two,0.0,1
wfpt.2,1,73,530,-0.6527167695934653,530,2,Victim,group,235,0.30000000000000104,unfair,3.0,1,0.694948115000443,Three,1.0,1
wfpt.2,1,74,532,1.2200739691181943,532,2,Victim,group,237,0.4,unfair,2.0,1,1.24709061000067,Two,0.0,1
wfpt.2,1,75,533,-0.6028319557119897,533,2,Victim,group,238,0.6,unfair,0.0,0,-2.66539864700098,Zero,-3.0,1
wfpt.2,1,76,541,-0.4910319557119897,541,2,Victim,group,246,1.2,unfair,0.0,0,-0.560205346000657,Zero,-3.0,1
wfpt.2,1,77,550,0.8760727969228743,550,2,Victim,alone,255,0.9,unfair,,1,1.03105612200125,Alone,,1
wfpt.2,1,78,551,0.48026217085669454,551,2,Victim,group,256,1.0,unfair,3.0,1,0.6788873210007299,Three,1.0,1
wfpt.2,1,79,555,0.5158621708566946,555,2,Victim,group,260,0.5,unfair,3.0,1,1.1604717299996998,Three,1.0,1
wfpt.2,1,80,556,-0.4997205599595864,556,2,Victim,group,261,1.1,unfair,1.0,0,-0.7743291329989008,One,-1.0,1
wfpt.2,1,81,557,1.1889012655062725,557,2,Victim,group,262,1.3,unfair,0.0,0,-0.5667526880006329,Zero,-3.0,1
wfpt.2,1,82,563,-2.270841746380607,563,2,Victim,group,268,0.6,unfair,2.0,1,1.0804333149990302,Two,0.0,1
wfpt.2,1,83,567,0.9393012655062722,567,2,Victim,group,272,0.699999999999999,unfair,0.0,0,-0.38556393900034897,Zero,-3.0,1
wfpt.2,1,84,569,0.9003601090329698,569,2,Victim,group,274,0.699999999999999,unfair,1.0,0,-0.537114032000318,One,-1.0,1
wfpt.2,1,85,570,2.1025601090329697,570,2,Victim,group,275,0.5,unfair,1.0,0,-4.34317708799972,One,-1.0,1
wfpt.2,1,86,583,-0.8685251553132942,583,2,Victim,alone,288,0.5,unfair,,1,0.6017881979987579,Alone,,1
wfpt.2,1,87,585,-0.5560319557119897,585,2,Victim,group,290,1.0,unfair,0.0,0,-0.425661107999986,Zero,-3.0,1
wfpt.2,1,88,588,0.8428621708566947,588,2,Victim,group,293,0.5,unfair,3.0,1,0.710542397999234,Three,1.0,1
wfpt.2,1,89,590,0.6350621708566946,590,2,Victim,group,295,1.0,unfair,3.0,1,1.2551129610001202,Three,1.0,1
wfpt.2,1,90,593,-1.154780181935207,593,2,Victim,group,298,0.19999999999999898,unfair,4.0,1,0.493964233999577,Four,3.0,1
wfpt.2,1,91,595,0.45712879490766,595,2,Victim,group,300,0.6,unfair,4.0,1,0.415878152000005,Four,3.0,1
wfpt.2,1,92,599,0.5984739691181942,599,2,Victim,group,304,0.9,unfair,2.0,1,2.849625113,Two,0.0,1
wfpt.2,1,93,605,0.55932879490766,605,2,Victim,group,310,0.699999999999999,unfair,4.0,1,0.5393594149991261,Four,3.0,1
wfpt.2,1,94,607,0.49732879490766,607,2,Victim,group,312,0.30000000000000104,unfair,4.0,1,0.5391256849998171,Four,3.0,1
wfpt.2,1,95,608,0.6370621708566946,608,2,Victim,group,313,1.0,unfair,3.0,1,0.727084239999385,Three,1.0,1
wfpt.2,1,96,611,1.0857601090329698,611,2,Victim,group,316,0.4,unfair,1.0,0,-0.519208697998693,One,-1.0,1
wfpt.2,1,97,614,0.8952727969228743,614,2,Victim,alone,319,0.4,unfair,,1,1.02316547100054,Alone,,1
wfpt.2,1,98,615,-0.5378319557119897,615,2,Victim,group,320,1.0,unfair,0.0,0,-0.6291417669999649,Zero,-3.0,1
wfpt.2,1,99,618,0.7582621708566946,618,2,Victim,group,323,0.800000000000001,unfair,3.0,1,0.7948845129994879,Three,1.0,1
wfpt.2,1,100,619,0.99432879490766,619,2,Victim,group,324,0.9,unfair,4.0,1,0.759468618000028,Four,3.0,1
wfpt.2,1,101,622,-0.5962319557119897,622,2,Victim,group,327,1.0,unfair,0.0,0,-0.649750366999797,Zero,-3.0,1
wfpt.2,1,102,624,1.13876010903297,624,2,Victim,group,329,1.0,unfair,1.0,0,-0.5577461850007239,One,-1.0,1
wfpt.2,1,103,627,-1.9343205599595865,627,2,Victim,group,332,0.699999999999999,unfair,1.0,0,-0.644939590998547,One,-1.0,1
wfpt.2,1,104,629,1.087273969118194,629,2,Victim,group,334,0.9,unfair,2.0,1,0.901502627000809,Two,0.0,1
wfpt.2,1,105,631,0.69992879490766,631,2,Victim,group,336,1.2,unfair,4.0,1,0.44923009500053,Four,3.0,1
wfpt.2,1,106,632,0.55172879490766,632,2,Victim,group,337,0.9,unfair,4.0,1,0.6335778869997739,Four,3.0,1
wfpt.2,1,107,634,2.026701265506272,634,2,Victim,group,339,0.0999999999999996,unfair,0.0,0,-0.5945492959999681,Zero,-3.0,1
wfpt.2,1,108,638,0.7091287949076601,638,2,Victim,group,343,0.6,unfair,4.0,1,0.5944726620000439,Four,3.0,1
wfpt.2,1,109,649,1.59516010903297,649,2,Victim,group,354,0.4,unfair,1.0,0,-0.564583397999741,One,-1.0,1
wfpt.2,1,110,651,-3.0000417463806075,651,2,Victim,group,356,1.3,unfair,2.0,1,0.860397220998493,Two,0.0,1
wfpt.2,1,111,652,0.7400739691181942,652,2,Victim,group,357,0.699999999999999,unfair,2.0,1,1.00023552300081,Two,0.0,1
wfpt.2,1,112,659,0.9558739691181942,659,2,Victim,group,364,0.0999999999999996,unfair,2.0,1,1.0717497410005299,Two,0.0,1
wfpt.2,1,113,660,0.6828621708566947,660,2,Victim,group,365,0.19999999999999898,unfair,3.0,1,0.617685867999171,Three,1.0,1
wfpt.2,1,114,661,0.7351012655062723,661,2,Victim,group,366,1.1,unfair,0.0,0,-0.6290273770009661,Zero,-3.0,1
wfpt.2,1,115,663,0.8075287949076599,663,2,Victim,group,368,1.3,unfair,4.0,1,0.556500323000364,Four,3.0,1
wfpt.2,1,116,665,1.0766727969228742,665,2,Victim,alone,370,0.6,unfair,,1,0.7092842809997819,Alone,,1
wfpt.2,1,117,666,0.5745601090329698,666,2,Victim,group,371,0.6,unfair,1.0,0,-0.44293505699897706,One,-1.0,1
wfpt.2,1,118,670,-0.6587205599595864,670,2,Victim,group,375,0.4,unfair,1.0,0,-0.612632481001128,One,-1.0,1
wfpt.2,1,119,675,0.9657601090329698,675,2,Victim,group,380,0.6,unfair,1.0,0,-2.59961031700004,One,-1.0,1
wfpt.2,1,120,679,1.0890727969228742,679,2,Victim,alone,384,0.19999999999999898,unfair,,1,1.04670287699992,Alone,,1
wfpt.2,1,121,680,0.51072879490766,680,2,Victim,group,385,0.699999999999999,unfair,4.0,1,0.541623074999734,Four,3.0,1
wfpt.2,1,122,688,0.42006217085669456,688,2,Victim,group,393,1.0,unfair,3.0,1,0.5657209119999611,Three,1.0,1
wfpt.2,1,123,691,0.49092879490766006,691,2,Victim,group,396,1.2,unfair,4.0,1,0.5258849620004179,Four,3.0,1
wfpt.2,1,124,692,1.4446727969228743,692,2,Victim,alone,397,0.800000000000001,unfair,,1,0.7166121039990679,Alone,,1
wfpt.2,1,125,701,0.7890727969228744,701,2,Victim,alone,406,0.800000000000001,unfair,,1,1.56661252000049,Alone,,1
wfpt.2,1,126,705,0.6625287949076599,705,2,Victim,group,410,1.0,unfair,4.0,1,0.7247726519999559,Four,3.0,1
wfpt.2,1,127,708,0.6014727969228744,708,2,Victim,alone,413,0.5,unfair,,1,0.550499218999903,Alone,,1
wfpt.2,1,128,712,0.8914621708566945,712,2,Victim,group,417,1.2,unfair,3.0,1,0.7566107060010842,Three,1.0,1
wfpt.2,1,129,713,0.8704739691181942,713,2,Victim,group,418,1.1,unfair,2.0,1,0.8939455450017699,Two,0.0,1
wfpt.2,1,130,721,1.2187287949076602,721,2,Victim,group,426,0.4,unfair,4.0,1,0.9321080549998442,Four,3.0,1
wfpt.2,1,131,725,-0.41732055995958633,725,2,Victim,group,430,0.800000000000001,unfair,1.0,0,-1.4924586199995198,One,-1.0,1
wfpt.2,1,132,727,2.4833601090329696,727,2,Victim,group,432,0.9,unfair,1.0,0,-0.5853157809997359,One,-1.0,1
wfpt.2,1,133,731,0.5818727969228743,731,2,Victim,alone,436,0.19999999999999898,unfair,,1,1.7805416520004698,Alone,,1
wfpt.2,1,134,732,0.6819601090329698,732,2,Victim,group,437,0.5,unfair,1.0,0,-0.483735505000368,One,-1.0,1
wfpt.2,1,135,733,-1.0708319557119896,733,2,Victim,group,438,0.4,unfair,0.0,0,-0.495661485998426,Zero,-3.0,1
wfpt.2,1,136,734,0.50812879490766,734,2,Victim,group,439,1.1,unfair,4.0,1,0.5812417729994189,Four,3.0,1
wfpt.2,1,137,737,0.6438739691181942,737,2,Victim,group,442,0.699999999999999,unfair,2.0,1,1.02924353500021,Two,0.0,1
wfpt.2,1,138,739,-1.0800319557119895,739,2,Victim,group,444,0.4,unfair,0.0,0,-0.6159182609990239,Zero,-3.0,1
wfpt.2,1,139,742,0.9576727969228743,742,2,Victim,alone,447,0.0999999999999996,unfair,,1,0.512909649998619,Alone,,1
wfpt.3,0,0,747,-0.9725867320704902,747,3,Victim,group,32,0.19999999999999898,unfair,1.0,0,-1.33351895400119,One,-1.0,1
wfpt.3,0,1,752,-2.1505867320704906,752,3,Victim,group,37,1.3,unfair,1.0,0,-1.07790538599875,One,-1.0,1
wfpt.3,0,2,756,-0.6924259888042359,756,3,Victim,group,41,0.5,unfair,4.0,0,-3.8203486279999197,Four,3.0,1
wfpt.3,0,3,757,-2.0242259888042358,757,3,Victim,group,42,0.6,unfair,4.0,1,3.48189279800135,Four,3.0,1
wfpt.3,0,4,769,2.613930073815835,769,3,Victim,group,54,0.30000000000000104,unfair,4.0,1,2.72211437900114,Four,3.0,1
wfpt.3,0,5,775,1.4437300738158347,775,3,Victim,group,60,1.1,unfair,4.0,1,1.32755384600023,Four,3.0,1
wfpt.3,0,6,776,4.325855271089502,776,3,Victim,group,61,0.30000000000000104,unfair,3.0,1,2.65295718699781,Three,1.0,1
wfpt.3,0,7,785,-0.9586382247415443,785,3,Victim,group,70,1.1,unfair,2.0,1,1.46676272799959,Two,0.0,1
wfpt.3,0,8,786,-1.175906305120483,786,3,Victim,group,71,0.19999999999999898,unfair,0.0,0,-2.16814650200104,Zero,-3.0,1
wfpt.3,0,9,788,2.429136085512921,788,3,Victim,group,73,0.4,unfair,2.0,0,-1.8387129019975001,Two,0.0,1
wfpt.3,0,10,789,-1.715706305120483,789,3,Victim,group,74,0.800000000000001,unfair,0.0,0,-1.96400732300026,Zero,-3.0,1
wfpt.3,0,11,795,-0.6862259888042359,795,3,Victim,group,80,1.1,unfair,4.0,0,-3.3396473309985604,Four,3.0,1
wfpt.3,0,12,797,-2.8037552417932314,797,3,Victim,group,82,1.1,unfair,3.0,1,3.5147532330011,Three,1.0,1
wfpt.3,0,13,798,1.1652895852913527,798,3,Victim,group,83,0.800000000000001,unfair,1.0,0,-2.0895458119994097,One,-1.0,1
wfpt.3,0,14,800,-0.6823063051204828,800,3,Victim,group,85,0.5,unfair,0.0,0,-1.3570770219994301,Zero,-3.0,1
wfpt.3,0,15,803,-1.8105063051204828,803,3,Victim,group,88,1.3,unfair,0.0,0,-1.0845731769986702,Zero,-3.0,1
wfpt.3,0,16,809,0.8226097746606121,809,3,Victim,group,94,0.19999999999999898,unfair,0.0,0,-1.54290605400092,Zero,-3.0,1
wfpt.3,0,17,810,0.9006552710895015,810,3,Victim,group,96,1.1,unfair,3.0,0,-3.54349775199807,Three,1.0,1
wfpt.3,0,18,812,4.741130073815835,812,3,Victim,group,98,1.2,unfair,4.0,0,-2.9272855090021004,Four,3.0,1
wfpt.3,0,19,816,-2.0355867320704903,816,3,Victim,group,104,1.2,unfair,1.0,0,-1.38017904699882,One,-1.0,1
wfpt.3,0,20,822,-1.5767063051204828,822,3,Victim,group,110,0.6,unfair,0.0,0,-1.43041455400089,Zero,-3.0,1
wfpt.3,0,21,823,-1.1869063051204827,823,3,Victim,group,111,0.699999999999999,unfair,0.0,0,-1.93497970799945,Zero,-3.0,1
wfpt.3,0,22,824,1.6106062287501954,824,3,Victim,alone,112,0.699999999999999,unfair,,0,-1.39598255400051,Alone,,1
wfpt.3,0,23,825,-2.0444382247415445,825,3,Victim,group,113,0.5,unfair,2.0,0,-1.6762210659981103,Two,0.0,1
wfpt.3,0,24,826,-0.9487063051204828,826,3,Victim,group,114,1.0,unfair,0.0,0,-2.09684927899798,Zero,-3.0,1
wfpt.3,0,25,827,-1.505155241793232,827,3,Victim,group,115,1.2,unfair,3.0,0,-3.3717034250003097,Three,1.0,1
wfpt.3,0,26,828,-1.8311042762816556,828,3,Victim,alone,117,0.19999999999999898,unfair,,0,-2.0315133880030802,Alone,,1
wfpt.3,0,27,829,1.396936085512921,829,3,Victim,group,118,0.6,unfair,2.0,0,-1.9012016330016202,Two,0.0,1
wfpt.3,0,28,830,-1.0935867320704902,830,3,Victim,group,119,0.800000000000001,unfair,1.0,0,-2.76441251100186,One,-1.0,1
wfpt.3,0,29,831,1.7669300738158351,831,3,Victim,group,120,0.19999999999999898,unfair,4.0,0,-3.00126923400239,Four,3.0,1
wfpt.3,0,30,837,-0.9903867320704902,837,3,Victim,group,126,0.5,unfair,1.0,0,-1.3401880249985,One,-1.0,1
wfpt.3,0,31,838,-1.596838224741544,838,3,Victim,group,127,1.1,unfair,2.0,0,-1.7226400289982802,Two,0.0,1
wfpt.3,0,32,842,3.448255271089502,842,3,Victim,group,131,0.699999999999999,unfair,3.0,0,-1.2240145469986599,Three,1.0,1
wfpt.3,0,33,845,0.8514062287501954,845,3,Victim,alone,134,0.5,unfair,,0,-1.3623593530028302,Alone,,1
wfpt.3,0,34,853,-1.4980382247415442,853,3,Victim,group,142,0.800000000000001,unfair,2.0,0,-1.9866866839984099,Two,0.0,1
wfpt.3,0,35,854,-1.1095867320704902,854,3,Victim,group,143,1.1,unfair,1.0,0,-1.65469823799867,One,-1.0,1
wfpt.3,0,36,857,-1.2367867320704904,857,3,Victim,group,146,0.5,unfair,1.0,0,-1.97161095500269,One,-1.0,1
wfpt.3,0,37,861,-2.778306305120483,861,3,Victim,group,150,0.5,unfair,0.0,0,-0.903943099001481,Zero,-3.0,1
wfpt.3,0,38,862,-1.2659552417932318,862,3,Victim,group,151,0.699999999999999,unfair,3.0,0,-1.3492538689970401,Three,1.0,1
wfpt.3,0,39,866,-1.2390382247415443,866,3,Victim,group,155,1.3,unfair,2.0,0,-1.02439330700145,Two,0.0,1
wfpt.3,0,40,867,-3.475438224741544,867,3,Victim,group,156,1.2,unfair,2.0,0,-0.871217823001643,Two,0.0,1
wfpt.3,0,41,869,-1.6493552417932316,869,3,Victim,group,158,0.800000000000001,unfair,3.0,0,-1.0129724690014,Three,1.0,1
wfpt.3,0,42,872,-5.248355241793233,872,3,Victim,group,161,0.800000000000001,unfair,3.0,0,-1.1478074920014498,Three,1.0,1
wfpt.3,0,43,876,-3.532438224741544,876,3,Victim,group,165,0.699999999999999,unfair,2.0,0,-1.25987435599745,Two,0.0,1
wfpt.3,0,44,877,-2.2086382247415446,877,3,Victim,group,166,0.19999999999999898,unfair,2.0,0,-0.929875371999515,Two,0.0,1
wfpt.3,0,45,880,-1.5464382247415442,880,3,Victim,group,169,0.5,unfair,2.0,0,-1.24462677100018,Two,0.0,1
wfpt.3,0,46,884,-0.7258382247415442,884,3,Victim,group,173,0.5,unfair,2.0,0,-0.87393236799835,Two,0.0,1
wfpt.3,0,47,888,-0.8678382247415442,888,3,Victim,group,177,0.9,unfair,2.0,0,-0.94066260299951,Two,0.0,1
wfpt.3,0,48,889,-1.362306305120483,889,3,Victim,group,178,0.0999999999999996,unfair,0.0,0,-0.9979116709982919,Zero,-3.0,1
wfpt.3,0,49,890,-1.0949063051204828,890,3,Victim,group,179,0.5,unfair,0.0,0,-0.813964733999455,Zero,-3.0,1
wfpt.3,0,50,891,1.4797300738158348,891,3,Victim,group,180,0.5,unfair,4.0,0,-0.7121887390021578,Four,3.0,1
wfpt.3,0,51,892,-1.1319552417932317,892,3,Victim,group,181,0.800000000000001,unfair,3.0,1,4.96405222099929,Three,1.0,1
wfpt.3,0,52,894,-0.7965042762816554,894,3,Victim,alone,183,1.2,unfair,,0,-2.87352122700031,Alone,,1
wfpt.3,0,53,899,-1.9479867320704902,899,3,Victim,group,189,1.0,unfair,1.0,0,-1.36410104500101,One,-1.0,1
wfpt.3,0,54,905,-0.8051063051204828,905,3,Victim,group,195,0.5,unfair,0.0,0,-0.965249600001698,Zero,-3.0,1
wfpt.3,0,55,907,-1.696906305120483,907,3,Victim,group,197,0.4,unfair,0.0,0,-1.6125837559993703,Zero,-3.0,1
wfpt.3,0,56,914,-2.1443867320704904,914,3,Victim,group,204,0.19999999999999898,unfair,1.0,0,-1.14249190799819,One,-1.0,1
wfpt.3,0,57,918,-1.4158382247415444,918,3,Victim,group,208,1.0,unfair,2.0,0,-2.05488498000341,Two,0.0,1
wfpt.3,0,58,921,-1.5521552417932316,921,3,Victim,group,211,1.0,unfair,3.0,0,-2.12866406200192,Three,1.0,1
wfpt.3,0,59,923,0.7766552710895016,923,3,Victim,group,213,0.800000000000001,unfair,3.0,0,-2.1738579260018,Three,1.0,1
wfpt.3,0,60,924,-1.2367867320704904,924,3,Victim,group,214,0.800000000000001,unfair,1.0,0,-1.5186187750005,One,-1.0,1
wfpt.3,0,61,928,1.3011300738158347,928,3,Victim,group,219,0.9,unfair,4.0,1,4.365417814999089,Four,3.0,1
wfpt.3,0,62,929,-1.1708382247415443,929,3,Victim,group,220,0.30000000000000104,unfair,2.0,0,-2.4439750599995,Two,0.0,1
wfpt.3,0,63,931,-3.388755241793232,931,3,Victim,group,222,0.6,unfair,3.0,0,-3.61469530899922,Three,1.0,1
wfpt.3,0,64,932,0.7497300738158349,932,3,Victim,group,223,0.800000000000001,unfair,4.0,1,3.96127597600207,Four,3.0,1
wfpt.3,0,65,933,-1.43718673207049,933,3,Victim,group,224,1.0,unfair,1.0,0,-1.50654866699915,One,-1.0,1
wfpt.3,0,66,935,-0.8625063051204829,935,3,Victim,group,226,0.9,unfair,0.0,0,-0.794656928999757,Zero,-3.0,1
wfpt.3,0,67,936,-1.4353552417932318,936,3,Victim,group,227,1.1,unfair,3.0,1,2.2841720510005,Three,1.0,1
wfpt.3,0,68,937,2.5886062287501956,937,3,Victim,alone,228,1.0,unfair,,1,2.48391353700208,Alone,,1
wfpt.3,0,69,943,-3.5336382247415443,943,3,Victim,group,234,0.6,unfair,2.0,1,3.5585061590027203,Two,0.0,1
wfpt.3,0,70,944,1.4588552710895013,944,3,Victim,group,235,0.30000000000000104,unfair,3.0,1,1.8166560440004098,Three,1.0,1
wfpt.3,0,71,946,0.9223360855129209,946,3,Victim,group,237,0.4,unfair,2.0,0,-2.5073659360023197,Two,0.0,1
wfpt.3,0,72,947,-1.1061063051204827,947,3,Victim,group,238,0.6,unfair,0.0,0,-1.82190216500021,Zero,-3.0,1
wfpt.3,0,73,955,-0.8373063051204828,955,3,Victim,group,246,1.2,unfair,0.0,0,-2.47127366199857,Zero,-3.0,1
wfpt.3,0,74,964,1.3994062287501954,964,3,Victim,alone,255,0.9,unfair,,0,-1.1628867500003301,Alone,,1
wfpt.3,0,75,965,0.9746552710895016,965,3,Victim,group,256,1.0,unfair,3.0,0,-3.15116361299806,Three,1.0,1
wfpt.3,0,76,968,-3.4721552417932315,968,3,Victim,group,260,0.5,unfair,3.0,1,2.36955413399846,Three,1.0,1
wfpt.3,0,77,969,-1.7731867320704904,969,3,Victim,group,261,1.1,unfair,1.0,1,1.4743315550003897,One,-1.0,1
wfpt.3,0,78,970,-1.330106305120483,970,3,Victim,group,262,1.3,unfair,0.0,0,-1.8766020589973798,Zero,-3.0,1
wfpt.3,0,79,976,-1.0502382247415443,976,3,Victim,group,268,0.6,unfair,2.0,0,-2.13697185799901,Two,0.0,1
wfpt.3,0,80,980,-1.3991063051204828,980,3,Victim,group,272,0.699999999999999,unfair,0.0,1,1.99088580399984,Zero,-3.0,1
wfpt.3,0,81,982,-1.8261867320704903,982,3,Victim,group,274,0.699999999999999,unfair,1.0,0,-1.59726352399957,One,-1.0,1
wfpt.3,0,82,983,-1.1579867320704902,983,3,Victim,group,275,0.5,unfair,1.0,0,-0.657621764999931,One,-1.0,1
wfpt.3,0,83,996,2.2040062287501954,996,3,Victim,alone,288,0.5,unfair,,0,-1.28450334299851,Alone,,1
wfpt.3,0,84,998,-1.0057063051204829,998,3,Victim,group,290,1.0,unfair,0.0,0,-1.4605570519997901,Zero,-3.0,1
wfpt.3,0,85,1001,1.4862552710895014,1001,3,Victim,group,293,0.5,unfair,3.0,0,-0.731422795000981,Three,1.0,1
wfpt.3,0,86,1003,-2.5933552417932315,1003,3,Victim,group,295,1.0,unfair,3.0,1,0.8173189189983531,Three,1.0,1
wfpt.3,0,87,1006,1.3911300738158348,1006,3,Victim,group,298,0.19999999999999898,unfair,4.0,1,2.3480796740004704,Four,3.0,1
wfpt.3,0,88,1008,-1.135625988804236,1008,3,Victim,group,300,0.6,unfair,4.0,1,1.5732780090002099,Four,3.0,1
wfpt.3,0,89,1012,-1.7958382247415448,1012,3,Victim,group,304,0.9,unfair,2.0,0,-1.27404653999838,Two,0.0,1
wfpt.3,0,90,1018,-2.809225988804236,1018,3,Victim,group,310,0.699999999999999,unfair,4.0,0,-0.5992955680012529,Four,3.0,1
wfpt.3,0,91,1020,-1.3056259888042359,1020,3,Victim,group,312,0.30000000000000104,unfair,4.0,1,0.879236714001308,Four,3.0,1
wfpt.3,0,92,1021,2.490655271089502,1021,3,Victim,group,313,1.0,unfair,3.0,0,-1.29452402600145,Three,1.0,1
wfpt.3,0,93,1024,-1.00218673207049,1024,3,Victim,group,316,0.4,unfair,1.0,0,-1.28666722699927,One,-1.0,1
wfpt.3,0,94,1027,-0.7829042762816554,1027,3,Victim,alone,319,0.4,unfair,,0,-2.70449601099972,Alone,,1
wfpt.3,0,95,1028,-2.487106305120483,1028,3,Victim,group,320,1.0,unfair,0.0,0,-1.2428126339982601,Zero,-3.0,1
wfpt.3,0,96,1031,-3.5507552417932318,1031,3,Victim,group,323,0.800000000000001,unfair,3.0,0,-2.31205623500136,Three,1.0,1
wfpt.3,0,97,1032,-3.447025988804236,1032,3,Victim,group,324,0.9,unfair,4.0,0,-2.15720819799753,Four,3.0,1
wfpt.3,0,98,1035,-0.9065063051204828,1035,3,Victim,group,327,1.0,unfair,0.0,0,-0.9113158990003281,Zero,-3.0,1
wfpt.3,0,99,1037,-0.8807867320704902,1037,3,Victim,group,329,1.0,unfair,1.0,0,-0.9046348649972059,One,-1.0,1
wfpt.3,0,100,1040,-2.9405867320704906,1040,3,Victim,group,332,0.699999999999999,unfair,1.0,0,-0.92243964500085,One,-1.0,1
wfpt.3,0,101,1042,-2.0154382247415445,1042,3,Victim,group,334,0.9,unfair,2.0,0,-0.8364974819996859,Two,0.0,1
wfpt.3,0,102,1044,1.2055300738158348,1044,3,Victim,group,336,1.2,unfair,4.0,1,0.8271920629995291,Four,3.0,1
wfpt.3,0,103,1045,-1.5120259888042362,1045,3,Victim,group,337,0.9,unfair,4.0,0,-2.51478475800104,Four,3.0,1
wfpt.3,0,104,1047,-1.639906305120483,1047,3,Victim,group,339,0.0999999999999996,unfair,0.0,0,-0.8345085689979901,Zero,-3.0,1
wfpt.3,0,105,1051,0.842530073815835,1051,3,Victim,group,343,0.6,unfair,4.0,0,-1.29022878199976,Four,3.0,1
wfpt.3,0,106,1062,-1.40138673207049,1062,3,Victim,group,354,0.4,unfair,1.0,0,-1.32117158199981,One,-1.0,1
wfpt.3,0,107,1064,2.071136085512921,1064,3,Victim,group,356,1.3,unfair,2.0,0,-1.04401180300192,Two,0.0,1
wfpt.3,0,108,1065,-0.5440382247415443,1065,3,Victim,group,357,0.699999999999999,unfair,2.0,0,-1.01399482699708,Two,0.0,1
wfpt.3,0,109,1072,-1.0944382247415443,1072,3,Victim,group,364,0.0999999999999996,unfair,2.0,0,-2.74933197499922,Two,0.0,1
wfpt.3,0,110,1073,4.6742552710895025,1073,3,Victim,group,365,0.19999999999999898,unfair,3.0,0,-3.74436180200064,Three,1.0,1
wfpt.3,0,111,1074,-1.1335063051204828,1074,3,Victim,group,366,1.1,unfair,0.0,0,-1.46363943699907,Zero,-3.0,1
wfpt.3,0,112,1076,1.2753300738158346,1076,3,Victim,group,368,1.3,unfair,4.0,1,1.64545939300297,Four,3.0,1
wfpt.3,0,113,1078,-1.0575042762816556,1078,3,Victim,alone,370,0.6,unfair,,0,-1.36022357300317,Alone,,1
wfpt.3,0,114,1079,-2.48858673207049,1079,3,Victim,group,371,0.6,unfair,1.0,0,-2.27037379300236,One,-1.0,1
wfpt.3,0,115,1083,-0.9109867320704902,1083,3,Victim,group,375,0.4,unfair,1.0,0,-0.8059917240025241,One,-1.0,1
wfpt.3,0,116,1088,-2.0497867320704906,1088,3,Victim,group,380,0.6,unfair,1.0,0,-0.9243915439983541,One,-1.0,1
wfpt.3,0,117,1092,-2.5547042762816554,1092,3,Victim,alone,384,0.19999999999999898,unfair,,0,-0.8743464990002391,Alone,,1
wfpt.3,0,118,1093,-0.8260259888042358,1093,3,Victim,group,385,0.699999999999999,unfair,4.0,1,3.20000727300067,Four,3.0,1
wfpt.3,0,119,1101,1.0770552710895016,1101,3,Victim,group,393,1.0,unfair,3.0,1,1.34393772000112,Three,1.0,1
wfpt.3,0,120,1104,1.821130073815835,1104,3,Victim,group,396,1.2,unfair,4.0,1,2.91796998200152,Four,3.0,1
wfpt.3,0,121,1105,-2.2803042762816554,1105,3,Victim,alone,397,0.800000000000001,unfair,,0,-1.66213751800024,Alone,,1
wfpt.3,0,122,1114,-1.1453042762816552,1114,3,Victim,alone,406,0.800000000000001,unfair,,0,-1.28051128299921,Alone,,1
wfpt.3,0,123,1118,0.9505300738158349,1118,3,Victim,group,410,1.0,unfair,4.0,0,-1.6183187339993301,Four,3.0,1
wfpt.3,0,124,1121,-0.8639042762816554,1121,3,Victim,alone,413,0.5,unfair,,0,-1.5500039990001802,Alone,,1
wfpt.3,0,125,1125,-1.0289552417932317,1125,3,Victim,group,417,1.2,unfair,3.0,0,-1.05699407900102,Three,1.0,1
wfpt.3,0,126,1126,-0.8280382247415443,1126,3,Victim,group,418,1.1,unfair,2.0,0,-1.87625138799922,Two,0.0,1
wfpt.3,0,127,1134,3.1027300738158345,1134,3,Victim,group,426,0.4,unfair,4.0,0,-1.6619893860006398,Four,3.0,1
wfpt.3,0,128,1138,-0.6639867320704902,1138,3,Victim,group,430,0.800000000000001,unfair,1.0,0,-1.0612534460015,One,-1.0,1
wfpt.3,0,129,1140,-0.7827867320704902,1140,3,Victim,group,432,0.9,unfair,1.0,0,-1.1199418309988702,One,-1.0,1
wfpt.3,0,130,1144,-1.0129042762816554,1144,3,Victim,alone,436,0.19999999999999898,unfair,,1,1.1100899320008502,Alone,,1
wfpt.3,0,131,1145,-1.1379867320704902,1145,3,Victim,group,437,0.5,unfair,1.0,1,2.05679146200055,One,-1.0,1
wfpt.3,0,132,1146,-1.663906305120483,1146,3,Victim,group,438,0.4,unfair,0.0,1,0.7892528960001071,Zero,-3.0,1
wfpt.3,0,133,1147,1.571330073815835,1147,3,Victim,group,439,1.1,unfair,4.0,1,0.851225073001842,Four,3.0,1
wfpt.3,0,134,1150,-1.0144382247415442,1150,3,Victim,group,442,0.699999999999999,unfair,2.0,1,1.9385697149991798,Two,0.0,1
wfpt.3,0,135,1152,-3.0203063051204824,1152,3,Victim,group,444,0.4,unfair,0.0,0,-1.43071431600038,Zero,-3.0,1
wfpt.3,0,136,1155,3.337806228750196,1155,3,Victim,alone,447,0.0999999999999996,unfair,,0,-1.1777200520009499,Alone,,1
wfpt.3,1,0,747,-0.9635015437877299,747,3,Victim,group,32,0.19999999999999898,unfair,1.0,0,-1.33351895400119,One,-1.0,1
wfpt.3,1,1,752,-0.7411015437877299,752,3,Victim,group,37,1.3,unfair,1.0,0,-1.07790538599875,One,-1.0,1
wfpt.3,1,2,756,0.6580575294713038,756,3,Victim,group,41,0.5,unfair,4.0,0,-3.8203486279999197,Four,3.0,1
wfpt.3,1,3,757,-1.9180998424957152,757,3,Victim,group,42,0.6,unfair,4.0,1,3.48189279800135,Four,3.0,1
wfpt.3,1,4,769,-0.7892998424957152,769,3,Victim,group,54,0.30000000000000104,unfair,4.0,1,2.72211437900114,Four,3.0,1
wfpt.3,1,5,775,-0.8818998424957152,775,3,Victim,group,60,1.1,unfair,4.0,1,1.32755384600023,Four,3.0,1
wfpt.3,1,6,776,-1.1603169465425724,776,3,Victim,group,61,0.30000000000000104,unfair,3.0,1,2.65295718699781,Three,1.0,1
wfpt.3,1,7,785,-0.9225286112403983,785,3,Victim,group,70,1.1,unfair,2.0,1,1.46676272799959,Two,0.0,1
wfpt.3,1,8,786,-1.7457121041059944,786,3,Victim,group,71,0.19999999999999898,unfair,0.0,0,-2.16814650200104,Zero,-3.0,1
wfpt.3,1,9,788,-4.617128611240398,788,3,Victim,group,73,0.4,unfair,2.0,0,-1.8387129019975001,Two,0.0,1
wfpt.3,1,10,789,-1.7545121041059943,789,3,Victim,group,74,0.800000000000001,unfair,0.0,0,-1.96400732300026,Zero,-3.0,1
wfpt.3,1,11,795,1.849857529471304,795,3,Victim,group,80,1.1,unfair,4.0,0,-3.3396473309985604,Four,3.0,1
wfpt.3,1,12,797,-1.4489169465425724,797,3,Victim,group,82,1.1,unfair,3.0,1,3.5147532330011,Three,1.0,1
wfpt.3,1,13,798,-0.9037015437877298,798,3,Victim,group,83,0.800000000000001,unfair,1.0,0,-2.0895458119994097,One,-1.0,1
wfpt.3,1,14,800,-0.8903121041059943,800,3,Victim,group,85,0.5,unfair,0.0,0,-1.3570770219994301,Zero,-3.0,1
wfpt.3,1,15,803,-1.4365121041059943,803,3,Victim,group,88,1.3,unfair,0.0,0,-1.0845731769986702,Zero,-3.0,1
wfpt.3,1,16,809,-0.9525121041059942,809,3,Victim,group,94,0.19999999999999898,unfair,0.0,0,-1.54290605400092,Zero,-3.0,1
wfpt.3,1,17,810,1.8503285811921126,810,3,Victim,group,96,1.1,unfair,3.0,0,-3.54349775199807,Three,1.0,1
wfpt.3,1,18,812,-3.1466998424957153,812,3,Victim,group,98,1.2,unfair,4.0,0,-2.9272855090021004,Four,3.0,1
wfpt.3,1,19,816,-1.6417015437877298,816,3,Victim,group,104,1.2,unfair,1.0,0,-1.38017904699882,One,-1.0,1
wfpt.3,1,20,822,-1.3461121041059942,822,3,Victim,group,110,0.6,unfair,0.0,0,-1.43041455400089,Zero,-3.0,1
wfpt.3,1,21,823,-2.1923121041059943,823,3,Victim,group,111,0.699999999999999,unfair,0.0,0,-1.93497970799945,Zero,-3.0,1
wfpt.3,1,22,824,-2.9480985290208097,824,3,Victim,alone,112,0.699999999999999,unfair,,0,-1.39598255400051,Alone,,1
wfpt.3,1,23,825,-3.3185286112403984,825,3,Victim,group,113,0.5,unfair,2.0,0,-1.6762210659981103,Two,0.0,1
wfpt.3,1,24,826,-0.7323121041059941,826,3,Victim,group,114,1.0,unfair,0.0,0,-2.09684927899798,Zero,-3.0,1
wfpt.3,1,25,827,-2.9879169465425726,827,3,Victim,group,115,1.2,unfair,3.0,0,-3.3717034250003097,Three,1.0,1
wfpt.3,1,26,828,-0.9186985290208096,828,3,Victim,alone,117,0.19999999999999898,unfair,,0,-2.0315133880030802,Alone,,1
wfpt.3,1,27,829,-1.0131286112403983,829,3,Victim,group,118,0.6,unfair,2.0,0,-1.9012016330016202,Two,0.0,1
wfpt.3,1,28,830,-1.48550154378773,830,3,Victim,group,119,0.800000000000001,unfair,1.0,0,-2.76441251100186,One,-1.0,1
wfpt.3,1,29,831,1.2744575294713036,831,3,Victim,group,120,0.19999999999999898,unfair,4.0,0,-3.00126923400239,Four,3.0,1
wfpt.3,1,30,837,-1.3693015437877298,837,3,Victim,group,126,0.5,unfair,1.0,0,-1.3401880249985,One,-1.0,1
wfpt.3,1,31,838,-0.9263286112403983,838,3,Victim,group,127,1.1,unfair,2.0,0,-1.7226400289982802,Two,0.0,1
wfpt.3,1,32,842,-2.8087169465425723,842,3,Victim,group,131,0.699999999999999,unfair,3.0,0,-1.2240145469986599,Three,1.0,1
wfpt.3,1,33,845,-3.7058985290208097,845,3,Victim,alone,134,0.5,unfair,,0,-1.3623593530028302,Alone,,1
wfpt.3,1,34,853,-4.388928611240399,853,3,Victim,group,142,0.800000000000001,unfair,2.0,0,-1.9866866839984099,Two,0.0,1
wfpt.3,1,35,854,-1.16290154378773,854,3,Victim,group,143,1.1,unfair,1.0,0,-1.65469823799867,One,-1.0,1
wfpt.3,1,36,857,-1.13890154378773,857,3,Victim,group,146,0.5,unfair,1.0,0,-1.97161095500269,One,-1.0,1
wfpt.3,1,37,861,-0.9327121041059941,861,3,Victim,group,150,0.5,unfair,0.0,0,-0.903943099001481,Zero,-3.0,1
wfpt.3,1,38,862,-3.0067169465425723,862,3,Victim,group,151,0.699999999999999,unfair,3.0,0,-1.3492538689970401,Three,1.0,1
wfpt.3,1,39,866,-4.452528611240399,866,3,Victim,group,155,1.3,unfair,2.0,0,-1.02439330700145,Two,0.0,1
wfpt.3,1,40,867,-1.519128611240398,867,3,Victim,group,156,1.2,unfair,2.0,0,-0.871217823001643,Two,0.0,1
wfpt.3,1,41,869,-5.357516946542573,869,3,Victim,group,158,0.800000000000001,unfair,3.0,0,-1.0129724690014,Three,1.0,1
wfpt.3,1,42,872,-1.6503169465425724,872,3,Victim,group,161,0.800000000000001,unfair,3.0,0,-1.1478074920014498,Three,1.0,1
wfpt.3,1,43,876,1.9971587497681151,876,3,Victim,group,165,0.699999999999999,unfair,2.0,0,-1.25987435599745,Two,0.0,1
wfpt.3,1,44,877,1.891358749768115,877,3,Victim,group,166,0.19999999999999898,unfair,2.0,0,-0.929875371999515,Two,0.0,1
wfpt.3,1,45,880,-1.4373286112403982,880,3,Victim,group,169,0.5,unfair,2.0,0,-1.24462677100018,Two,0.0,1
wfpt.3,1,46,884,-1.3815286112403982,884,3,Victim,group,173,0.5,unfair,2.0,0,-0.87393236799835,Two,0.0,1
wfpt.3,1,47,888,4.708558749768114,888,3,Victim,group,177,0.9,unfair,2.0,0,-0.94066260299951,Two,0.0,1
wfpt.3,1,48,889,-1.3783121041059943,889,3,Victim,group,178,0.0999999999999996,unfair,0.0,0,-0.9979116709982919,Zero,-3.0,1
wfpt.3,1,49,890,-1.1755121041059942,890,3,Victim,group,179,0.5,unfair,0.0,0,-0.813964733999455,Zero,-3.0,1
wfpt.3,1,50,891,1.782057529471304,891,3,Victim,group,180,0.5,unfair,4.0,0,-0.7121887390021578,Four,3.0,1
wfpt.3,1,51,892,0.8271285811921126,892,3,Victim,group,181,0.800000000000001,unfair,3.0,1,4.96405222099929,Three,1.0,1
wfpt.3,1,52,894,-1.7314985290208096,894,3,Victim,alone,183,1.2,unfair,,0,-2.87352122700031,Alone,,1
wfpt.3,1,53,899,-2.02830154378773,899,3,Victim,group,189,1.0,unfair,1.0,0,-1.36410104500101,One,-1.0,1
wfpt.3,1,54,905,-1.0757121041059943,905,3,Victim,group,195,0.5,unfair,0.0,0,-0.965249600001698,Zero,-3.0,1
wfpt.3,1,55,907,-1.2351121041059943,907,3,Victim,group,197,0.4,unfair,0.0,0,-1.6125837559993703,Zero,-3.0,1
wfpt.3,1,56,914,-0.7563015437877298,914,3,Victim,group,204,0.19999999999999898,unfair,1.0,0,-1.14249190799819,One,-1.0,1
wfpt.3,1,57,918,-0.8783286112403983,918,3,Victim,group,208,1.0,unfair,2.0,0,-2.05488498000341,Two,0.0,1
wfpt.3,1,58,921,2.996128581192113,921,3,Victim,group,211,1.0,unfair,3.0,0,-2.12866406200192,Three,1.0,1
wfpt.3,1,59,923,-1.9479169465425723,923,3,Victim,group,213,0.800000000000001,unfair,3.0,0,-2.1738579260018,Three,1.0,1
wfpt.3,1,60,924,-0.8849015437877299,924,3,Victim,group,214,0.800000000000001,unfair,1.0,0,-1.5186187750005,One,-1.0,1
wfpt.3,1,61,928,-1.7468998424957152,928,3,Victim,group,219,0.9,unfair,4.0,1,4.365417814999089,Four,3.0,1
wfpt.3,1,62,929,-1.4363286112403981,929,3,Victim,group,220,0.30000000000000104,unfair,2.0,0,-2.4439750599995,Two,0.0,1
wfpt.3,1,63,931,-0.7809169465425724,931,3,Victim,group,222,0.6,unfair,3.0,0,-3.61469530899922,Three,1.0,1
wfpt.3,1,64,932,1.9888575294713038,932,3,Victim,group,223,0.800000000000001,unfair,4.0,1,3.96127597600207,Four,3.0,1
wfpt.3,1,65,933,-0.8047015437877298,933,3,Victim,group,224,1.0,unfair,1.0,0,-1.50654866699915,One,-1.0,1
wfpt.3,1,66,935,-1.188312104105994,935,3,Victim,group,226,0.9,unfair,0.0,0,-0.794656928999757,Zero,-3.0,1
wfpt.3,1,67,936,1.2299285811921126,936,3,Victim,group,227,1.1,unfair,3.0,1,2.2841720510005,Three,1.0,1
wfpt.3,1,68,937,1.9140735853134996,937,3,Victim,alone,228,1.0,unfair,,1,2.48391353700208,Alone,,1
wfpt.3,1,69,943,-1.3123286112403982,943,3,Victim,group,234,0.6,unfair,2.0,1,3.5585061590027203,Two,0.0,1
wfpt.3,1,70,944,1.5813285811921125,944,3,Victim,group,235,0.30000000000000104,unfair,3.0,1,1.8166560440004098,Three,1.0,1
wfpt.3,1,71,946,-1.0497286112403983,946,3,Victim,group,237,0.4,unfair,2.0,0,-2.5073659360023197,Two,0.0,1
wfpt.3,1,72,947,-0.9255121041059942,947,3,Victim,group,238,0.6,unfair,0.0,0,-1.82190216500021,Zero,-3.0,1
wfpt.3,1,73,955,-0.8543121041059942,955,3,Victim,group,246,1.2,unfair,0.0,0,-2.47127366199857,Zero,-3.0,1
wfpt.3,1,74,964,0.7140735853134995,964,3,Victim,alone,255,0.9,unfair,,0,-1.1628867500003301,Alone,,1
wfpt.3,1,75,965,-2.451116946542572,965,3,Victim,group,256,1.0,unfair,3.0,0,-3.15116361299806,Three,1.0,1
wfpt.3,1,76,968,-3.1155169465425723,968,3,Victim,group,260,0.5,unfair,3.0,1,2.36955413399846,Three,1.0,1
wfpt.3,1,77,969,0.9508943477754949,969,3,Victim,group,261,1.1,unfair,1.0,1,1.4743315550003897,One,-1.0,1
wfpt.3,1,78,970,-1.3227121041059942,970,3,Victim,group,262,1.3,unfair,0.0,0,-1.8766020589973798,Zero,-3.0,1
wfpt.3,1,79,976,-3.7079286112403986,976,3,Victim,group,268,0.6,unfair,2.0,0,-2.13697185799901,Two,0.0,1
wfpt.3,1,80,980,-0.9349121041059942,980,3,Victim,group,272,0.699999999999999,unfair,0.0,1,1.99088580399984,Zero,-3.0,1
wfpt.3,1,81,982,-0.9373015437877299,982,3,Victim,group,274,0.699999999999999,unfair,1.0,0,-1.59726352399957,One,-1.0,1
wfpt.3,1,82,983,-0.6603015437877299,983,3,Victim,group,275,0.5,unfair,1.0,0,-0.657621764999931,One,-1.0,1
wfpt.3,1,83,996,1.9302735853134998,996,3,Victim,alone,288,0.5,unfair,,0,-1.28450334299851,Alone,,1
wfpt.3,1,84,998,-0.8141121041059942,998,3,Victim,group,290,1.0,unfair,0.0,0,-1.4605570519997901,Zero,-3.0,1
wfpt.3,1,85,1001,-3.7735169465425726,1001,3,Victim,group,293,0.5,unfair,3.0,0,-0.731422795000981,Three,1.0,1
wfpt.3,1,86,1003,1.6505285811921127,1003,3,Victim,group,295,1.0,unfair,3.0,1,0.8173189189983531,Three,1.0,1
wfpt.3,1,87,1006,-0.9166998424957151,1006,3,Victim,group,298,0.19999999999999898,unfair,4.0,1,2.3480796740004704,Four,3.0,1
wfpt.3,1,88,1008,0.6878575294713037,1008,3,Victim,group,300,0.6,unfair,4.0,1,1.5732780090002099,Four,3.0,1
wfpt.3,1,89,1012,1.1895587497681153,1012,3,Victim,group,304,0.9,unfair,2.0,0,-1.27404653999838,Two,0.0,1
wfpt.3,1,90,1018,-1.3370998424957152,1018,3,Victim,group,310,0.699999999999999,unfair,4.0,0,-0.5992955680012529,Four,3.0,1
wfpt.3,1,91,1020,-6.5526998424957155,1020,3,Victim,group,312,0.30000000000000104,unfair,4.0,1,0.879236714001308,Four,3.0,1
wfpt.3,1,92,1021,1.1971285811921126,1021,3,Victim,group,313,1.0,unfair,3.0,0,-1.29452402600145,Three,1.0,1
wfpt.3,1,93,1024,-0.7865015437877299,1024,3,Victim,group,316,0.4,unfair,1.0,0,-1.28666722699927,One,-1.0,1
wfpt.3,1,94,1027,-1.7224985290208097,1027,3,Victim,alone,319,0.4,unfair,,0,-2.70449601099972,Alone,,1
wfpt.3,1,95,1028,-1.7847121041059943,1028,3,Victim,group,320,1.0,unfair,0.0,0,-1.2428126339982601,Zero,-3.0,1
wfpt.3,1,96,1031,-0.8155169465425723,1031,3,Victim,group,323,0.800000000000001,unfair,3.0,0,-2.31205623500136,Three,1.0,1
wfpt.3,1,97,1032,-3.3598998424957154,1032,3,Victim,group,324,0.9,unfair,4.0,0,-2.15720819799753,Four,3.0,1
wfpt.3,1,98,1035,-1.7497121041059942,1035,3,Victim,group,327,1.0,unfair,0.0,0,-0.9113158990003281,Zero,-3.0,1
wfpt.3,1,99,1037,-0.8583015437877299,1037,3,Victim,group,329,1.0,unfair,1.0,0,-0.9046348649972059,One,-1.0,1
wfpt.3,1,100,1040,-1.1109015437877299,1040,3,Victim,group,332,0.699999999999999,unfair,1.0,0,-0.92243964500085,One,-1.0,1
wfpt.3,1,101,1042,-1.4847286112403981,1042,3,Victim,group,334,0.9,unfair,2.0,0,-0.8364974819996859,Two,0.0,1
wfpt.3,1,102,1044,-0.9466998424957151,1044,3,Victim,group,336,1.2,unfair,4.0,1,0.8271920629995291,Four,3.0,1
wfpt.3,1,103,1045,-1.517699842495715,1045,3,Victim,group,337,0.9,unfair,4.0,0,-2.51478475800104,Four,3.0,1
wfpt.3,1,104,1047,-1.8305121041059942,1047,3,Victim,group,339,0.0999999999999996,unfair,0.0,0,-0.8345085689979901,Zero,-3.0,1
wfpt.3,1,105,1051,-1.6742998424957154,1051,3,Victim,group,343,0.6,unfair,4.0,0,-1.29022878199976,Four,3.0,1
wfpt.3,1,106,1062,-1.09630154378773,1062,3,Victim,group,354,0.4,unfair,1.0,0,-1.32117158199981,One,-1.0,1
wfpt.3,1,107,1064,-0.6123286112403983,1064,3,Victim,group,356,1.3,unfair,2.0,0,-1.04401180300192,Two,0.0,1
wfpt.3,1,108,1065,-3.6575286112403984,1065,3,Victim,group,357,0.699999999999999,unfair,2.0,0,-1.01399482699708,Two,0.0,1
wfpt.3,1,109,1072,-4.269928611240398,1072,3,Victim,group,364,0.0999999999999996,unfair,2.0,0,-2.74933197499922,Two,0.0,1
wfpt.3,1,110,1073,1.2259285811921126,1073,3,Victim,group,365,0.19999999999999898,unfair,3.0,0,-3.74436180200064,Three,1.0,1
wfpt.3,1,111,1074,-0.7667121041059941,1074,3,Victim,group,366,1.1,unfair,0.0,0,-1.46363943699907,Zero,-3.0,1
wfpt.3,1,112,1076,0.7314575294713037,1076,3,Victim,group,368,1.3,unfair,4.0,1,1.64545939300297,Four,3.0,1
wfpt.3,1,113,1078,-1.4112985290208095,1078,3,Victim,alone,370,0.6,unfair,,0,-1.36022357300317,Alone,,1
wfpt.3,1,114,1079,-1.95290154378773,1079,3,Victim,group,371,0.6,unfair,1.0,0,-2.27037379300236,One,-1.0,1
wfpt.3,1,115,1083,-0.8201015437877299,1083,3,Victim,group,375,0.4,unfair,1.0,0,-0.8059917240025241,One,-1.0,1
wfpt.3,1,116,1088,-1.0473015437877298,1088,3,Victim,group,380,0.6,unfair,1.0,0,-0.9243915439983541,One,-1.0,1
wfpt.3,1,117,1092,3.417873585313499,1092,3,Victim,alone,384,0.19999999999999898,unfair,,0,-0.8743464990002391,Alone,,1
wfpt.3,1,118,1093,-1.3694998424957152,1093,3,Victim,group,385,0.699999999999999,unfair,4.0,1,3.20000727300067,Four,3.0,1
wfpt.3,1,119,1101,-2.079916946542572,1101,3,Victim,group,393,1.0,unfair,3.0,1,1.34393772000112,Three,1.0,1
wfpt.3,1,120,1104,-0.7528998424957152,1104,3,Victim,group,396,1.2,unfair,4.0,1,2.91796998200152,Four,3.0,1
wfpt.3,1,121,1105,-6.19089852902081,1105,3,Victim,alone,397,0.800000000000001,unfair,,0,-1.66213751800024,Alone,,1
wfpt.3,1,122,1114,-3.0890985290208097,1114,3,Victim,alone,406,0.800000000000001,unfair,,0,-1.28051128299921,Alone,,1
wfpt.3,1,123,1118,2.413657529471304,1118,3,Victim,group,410,1.0,unfair,4.0,0,-1.6183187339993301,Four,3.0,1
wfpt.3,1,124,1121,-0.7038985290208095,1121,3,Victim,alone,413,0.5,unfair,,0,-1.5500039990001802,Alone,,1
wfpt.3,1,125,1125,1.8145285811921126,1125,3,Victim,group,417,1.2,unfair,3.0,0,-1.05699407900102,Three,1.0,1
wfpt.3,1,126,1126,-2.2825286112403984,1126,3,Victim,group,418,1.1,unfair,2.0,0,-1.87625138799922,Two,0.0,1
wfpt.3,1,127,1134,0.8052575294713038,1134,3,Victim,group,426,0.4,unfair,4.0,0,-1.6619893860006398,Four,3.0,1
wfpt.3,1,128,1138,0.6592943477754949,1138,3,Victim,group,430,0.800000000000001,unfair,1.0,0,-1.0612534460015,One,-1.0,1
wfpt.3,1,129,1140,-0.9747015437877299,1140,3,Victim,group,432,0.9,unfair,1.0,0,-1.1199418309988702,One,-1.0,1
wfpt.3,1,130,1144,-0.9098985290208097,1144,3,Victim,alone,436,0.19999999999999898,unfair,,1,1.1100899320008502,Alone,,1
wfpt.3,1,131,1145,-1.00990154378773,1145,3,Victim,group,437,0.5,unfair,1.0,1,2.05679146200055,One,-1.0,1
wfpt.3,1,132,1146,-2.4141121041059943,1146,3,Victim,group,438,0.4,unfair,0.0,1,0.7892528960001071,Zero,-3.0,1
wfpt.3,1,133,1147,1.9684575294713038,1147,3,Victim,group,439,1.1,unfair,4.0,1,0.851225073001842,Four,3.0,1
wfpt.3,1,134,1150,-1.0557286112403983,1150,3,Victim,group,442,0.699999999999999,unfair,2.0,1,1.9385697149991798,Two,0.0,1
wfpt.3,1,135,1152,-0.7453121041059941,1152,3,Victim,group,444,0.4,unfair,0.0,0,-1.43071431600038,Zero,-3.0,1
wfpt.3,1,136,1155,-1.3848985290208096,1155,3,Victim,alone,447,0.0999999999999996,unfair,,0,-1.1777200520009499,Alone,,1
wfpt.4,0,0,1160,-1.3378953380399037,1160,4,Victim,group,32,0.19999999999999898,unfair,1.0,1,0.93666906299768,One,-1.0,1
wfpt.4,0,1,1165,-0.9762953380399035,1165,4,Victim,group,37,1.3,unfair,1.0,0,-1.53443410000182,One,-1.0,1
wfpt.4,0,2,1169,0.8644679413470647,1169,4,Victim,group,41,0.5,unfair,4.0,0,-1.23506873199949,Four,3.0,1
wfpt.4,0,3,1170,1.1618679413470647,1170,4,Victim,group,42,0.6,unfair,4.0,1,1.19130732899066,Four,3.0,1
wfpt.4,0,4,1182,0.5470679413470648,1182,4,Victim,group,54,0.30000000000000104,unfair,4.0,1,0.9975408879981841,Four,3.0,1
wfpt.4,0,5,1188,0.7210679413470649,1188,4,Victim,group,60,1.1,unfair,4.0,1,0.748598384991055,Four,3.0,1
wfpt.4,0,6,1189,0.6941028716270663,1189,4,Victim,group,61,0.30000000000000104,unfair,3.0,1,1.2638680509990101,Three,1.0,1
wfpt.4,0,7,1198,0.6418141124362791,1198,4,Victim,group,70,1.1,unfair,2.0,1,1.76090687999385,Two,0.0,1
wfpt.4,0,8,1199,-0.5712159559935348,1199,4,Victim,group,71,0.19999999999999898,unfair,0.0,0,-1.7855189590191,Zero,-3.0,1
wfpt.4,0,9,1201,1.3962141124362792,1201,4,Victim,group,73,0.4,unfair,2.0,1,2.10824323998531,Two,0.0,1
wfpt.4,0,10,1202,-1.694815955993535,1202,4,Victim,group,74,0.800000000000001,unfair,0.0,0,-2.2122033399937204,Zero,-3.0,1
wfpt.4,0,11,1208,0.8918679413470648,1208,4,Victim,group,80,1.1,unfair,4.0,1,1.13961984298658,Four,3.0,1
wfpt.4,0,12,1210,0.5887028716270662,1210,4,Victim,group,82,1.1,unfair,3.0,1,1.5195118180126899,Three,1.0,1
wfpt.4,0,13,1211,-1.7426953380399035,1211,4,Victim,group,83,0.800000000000001,unfair,1.0,0,-1.09285021800315,One,-1.0,1
wfpt.4,0,14,1213,-0.8042159559935347,1213,4,Victim,group,85,0.5,unfair,0.0,0,-2.28282402001787,Zero,-3.0,1
wfpt.4,0,15,1216,-0.6172159559935348,1216,4,Victim,group,88,1.3,unfair,0.0,0,-1.96762040100293,Zero,-3.0,1
wfpt.4,0,16,1222,0.632220000633857,1222,4,Victim,group,94,0.19999999999999898,unfair,0.0,0,-1.07218488899525,Zero,-3.0,1
wfpt.4,0,17,1223,1.4817028716270664,1223,4,Victim,group,95,0.6,unfair,3.0,1,1.3410061199974699,Three,1.0,1
wfpt.4,0,18,1224,0.48170287162706626,1224,4,Victim,group,96,1.1,unfair,3.0,1,1.0116949380026201,Three,1.0,1
wfpt.4,0,19,1226,0.9688679413470649,1226,4,Victim,group,98,1.2,unfair,4.0,1,0.7297172110120301,Four,3.0,1
wfpt.4,0,20,1230,-1.1871391691427315,1230,4,Victim,group,102,1.1,unfair,4.0,1,0.791619269992225,Four,3.0,1
wfpt.4,0,21,1232,2.9628181885925704,1232,4,Victim,group,104,1.2,unfair,1.0,0,-0.755870666995179,One,-1.0,1
wfpt.4,0,22,1238,1.8742200006338567,1238,4,Victim,group,110,0.6,unfair,0.0,0,-1.24417934101075,Zero,-3.0,1
wfpt.4,0,23,1239,2.4098200006338573,1239,4,Victim,group,111,0.699999999999999,unfair,0.0,0,-0.998891783005092,Zero,-3.0,1
wfpt.4,0,24,1240,0.996519092280781,1240,4,Victim,alone,112,0.699999999999999,unfair,,0,-1.93232657600311,Alone,,1
wfpt.4,0,25,1241,0.806214112436279,1241,4,Victim,group,113,0.5,unfair,2.0,0,-4.068545439979061,Two,0.0,1
wfpt.4,0,26,1242,0.7420200006338569,1242,4,Victim,group,114,1.0,unfair,0.0,0,-1.4522439999855101,Zero,-3.0,1
wfpt.4,0,27,1243,0.9279028716270662,1243,4,Victim,group,115,1.2,unfair,3.0,1,1.9887879760062799,Three,1.0,1
wfpt.4,0,28,1245,0.631119092280781,1245,4,Victim,alone,117,0.19999999999999898,unfair,,1,1.9185171569988602,Alone,,1
wfpt.4,0,29,1246,0.9866141124362792,1246,4,Victim,group,118,0.6,unfair,2.0,1,2.15330772800371,Two,0.0,1
wfpt.4,0,30,1247,-0.6692953380399036,1247,4,Victim,group,119,0.800000000000001,unfair,1.0,0,-2.37625199797913,One,-1.0,1
wfpt.4,0,31,1248,1.0180679413470646,1248,4,Victim,group,120,0.19999999999999898,unfair,4.0,1,1.5441373870126,Four,3.0,1
wfpt.4,0,32,1254,-2.329895338039904,1254,4,Victim,group,126,0.5,unfair,1.0,0,-1.00789960299153,One,-1.0,1
wfpt.4,0,33,1255,0.9276141124362791,1255,4,Victim,group,127,1.1,unfair,2.0,1,1.94921583301038,Two,0.0,1
wfpt.4,0,34,1259,2.1473028716270663,1259,4,Victim,group,131,0.699999999999999,unfair,3.0,1,1.25709675601684,Three,1.0,1
wfpt.4,0,35,1262,-0.7602080363281485,1262,4,Victim,alone,134,0.5,unfair,,1,0.912972460006131,Alone,,1
wfpt.4,0,36,1270,0.8332141124362791,1270,4,Victim,group,142,0.800000000000001,unfair,2.0,1,1.6918005270126701,Two,0.0,1
wfpt.4,0,37,1271,-0.5812953380399035,1271,4,Victim,group,143,1.1,unfair,1.0,1,1.3049875950091498,One,-1.0,1
wfpt.4,0,38,1274,0.9880181885925703,1274,4,Victim,group,146,0.5,unfair,1.0,0,-1.18158875999507,One,-1.0,1
wfpt.4,0,39,1278,0.7162200006338569,1278,4,Victim,group,150,0.5,unfair,0.0,0,-1.6255035789799899,Zero,-3.0,1
wfpt.4,0,40,1279,0.6913028716270662,1279,4,Victim,group,151,0.699999999999999,unfair,3.0,1,2.36366307898425,Three,1.0,1
wfpt.4,0,41,1283,-0.9374679427173184,1283,4,Victim,group,155,1.3,unfair,2.0,1,1.21409281701199,Two,0.0,1
wfpt.4,0,42,1284,0.763614112436279,1284,4,Victim,group,156,1.2,unfair,2.0,1,1.0678166330035301,Two,0.0,1
wfpt.4,0,43,1286,0.9443028716270662,1286,4,Victim,group,158,0.800000000000001,unfair,3.0,1,1.03613771600067,Three,1.0,1
wfpt.4,0,44,1289,1.2345028716270665,1289,4,Victim,group,161,0.800000000000001,unfair,3.0,1,1.23037772800308,Three,1.0,1
wfpt.4,0,45,1293,0.8492141124362791,1293,4,Victim,group,165,0.699999999999999,unfair,2.0,1,1.8795470570039499,Two,0.0,1
wfpt.4,0,46,1294,1.1918141124362793,1294,4,Victim,group,166,0.19999999999999898,unfair,2.0,1,1.1222922320012,Two,0.0,1
wfpt.4,0,47,1297,0.6614141124362791,1297,4,Victim,group,169,0.5,unfair,2.0,1,1.4710857339960102,Two,0.0,1
wfpt.4,0,48,1301,-1.8354679427173184,1301,4,Victim,group,173,0.5,unfair,2.0,1,0.6969296729948841,Two,0.0,1
wfpt.4,0,49,1305,1.1326141124362792,1305,4,Victim,group,177,0.9,unfair,2.0,1,1.1912953990104098,Two,0.0,1
wfpt.4,0,50,1306,-2.9614159559935347,1306,4,Victim,group,178,0.0999999999999996,unfair,0.0,0,-0.867404599004658,Zero,-3.0,1
wfpt.4,0,51,1307,-0.9320159559935348,1307,4,Victim,group,179,0.5,unfair,0.0,0,-0.784129680978367,Zero,-3.0,1
wfpt.4,0,52,1308,2.9356679413470648,1308,4,Victim,group,180,0.5,unfair,4.0,1,0.613611176988343,Four,3.0,1
wfpt.4,0,53,1309,1.9227028716270664,1309,4,Victim,group,181,0.800000000000001,unfair,3.0,1,1.02977363299578,Three,1.0,1
wfpt.4,0,54,1311,1.0899190922807809,1311,4,Victim,alone,183,1.2,unfair,,1,1.34559019401786,Alone,,1
wfpt.4,0,55,1317,-0.43069533803990356,1317,4,Victim,group,189,1.0,unfair,1.0,0,-1.85802357600187,One,-1.0,1
wfpt.4,0,56,1323,-0.6268159559935348,1323,4,Victim,group,195,0.5,unfair,0.0,1,2.80337723999401,Zero,-3.0,1
wfpt.4,0,57,1325,-4.143815955993535,1325,4,Victim,group,197,0.4,unfair,0.0,0,-2.1139227260137,Zero,-3.0,1
wfpt.4,0,58,1332,-1.1800953380399035,1332,4,Victim,group,204,0.19999999999999898,unfair,1.0,0,-1.1169022760004699,One,-1.0,1
wfpt.4,0,59,1336,1.3564141124362792,1336,4,Victim,group,208,1.0,unfair,2.0,1,1.11871659199824,Two,0.0,1
wfpt.4,0,60,1339,0.8329028716270662,1339,4,Victim,group,211,1.0,unfair,3.0,1,0.922648686013417,Three,1.0,1
wfpt.4,0,61,1341,-0.8564413549160864,1341,4,Victim,group,213,0.800000000000001,unfair,3.0,1,1.03975892599556,Three,1.0,1
wfpt.4,0,62,1342,0.9050181885925703,1342,4,Victim,group,214,0.800000000000001,unfair,1.0,1,1.3475619119999498,One,-1.0,1
wfpt.4,0,63,1343,0.6845028716270662,1343,4,Victim,group,215,0.0999999999999996,unfair,3.0,1,1.40671494600247,Three,1.0,1
wfpt.4,0,64,1347,2.265867941347065,1347,4,Victim,group,219,0.9,unfair,4.0,1,0.662868717015954,Four,3.0,1
wfpt.4,0,65,1348,0.835414112436279,1348,4,Victim,group,220,0.30000000000000104,unfair,2.0,1,0.9458421590097711,Two,0.0,1
wfpt.4,0,66,1350,1.7075028716270666,1350,4,Victim,group,222,0.6,unfair,3.0,1,0.679468435992021,Three,1.0,1
wfpt.4,0,67,1351,2.5436679413470644,1351,4,Victim,group,223,0.800000000000001,unfair,4.0,1,0.833694810979068,Four,3.0,1
wfpt.4,0,68,1352,-2.6666953380399034,1352,4,Victim,group,224,1.0,unfair,1.0,0,-0.990924304001965,One,-1.0,1
wfpt.4,0,69,1354,-1.1396159559935346,1354,4,Victim,group,226,0.9,unfair,0.0,0,-0.846219947998179,Zero,-3.0,1
wfpt.4,0,70,1355,0.8379028716270662,1355,4,Victim,group,227,1.1,unfair,3.0,1,0.982927709002979,Three,1.0,1
wfpt.4,0,71,1356,2.225719092280781,1356,4,Victim,alone,228,1.0,unfair,,1,0.809395785006927,Alone,,1
wfpt.4,0,72,1362,1.0744141124362792,1362,4,Victim,group,234,0.6,unfair,2.0,1,1.0069079720124101,Two,0.0,1
wfpt.4,0,73,1363,0.8855028716270662,1363,4,Victim,group,235,0.30000000000000104,unfair,3.0,1,0.47694308499922,Three,1.0,1
wfpt.4,0,74,1365,-1.2976679427173186,1365,4,Victim,group,237,0.4,unfair,2.0,1,1.12501682498259,Two,0.0,1
wfpt.4,0,75,1366,1.9244200006338572,1366,4,Victim,group,238,0.6,unfair,0.0,0,-0.78318271500757,Zero,-3.0,1
wfpt.4,0,76,1374,-1.694815955993535,1374,4,Victim,group,246,1.2,unfair,0.0,0,-0.8024905959900931,Zero,-3.0,1
wfpt.4,0,77,1383,1.466319092280781,1383,4,Victim,alone,255,0.9,unfair,,1,0.867189991986379,Alone,,1
wfpt.4,0,78,1384,1.6171028716270663,1384,4,Victim,group,256,1.0,unfair,3.0,1,0.9011545740067959,Three,1.0,1
wfpt.4,0,79,1388,0.6219028716270663,1388,4,Victim,group,260,0.5,unfair,3.0,1,0.5728680070023979,Three,1.0,1
wfpt.4,0,80,1389,-0.8190953380399035,1389,4,Victim,group,261,1.1,unfair,1.0,1,1.8905794380116299,One,-1.0,1
wfpt.4,0,81,1390,-1.4560159559935348,1390,4,Victim,group,262,1.3,unfair,0.0,0,-0.979285528999753,Zero,-3.0,1
wfpt.4,0,82,1396,-3.400267942717318,1396,4,Victim,group,268,0.6,unfair,2.0,1,2.20910463301698,Two,0.0,1
wfpt.4,0,83,1400,-0.8714159559935348,1400,4,Victim,group,272,0.699999999999999,unfair,0.0,0,-0.729691915010335,Zero,-3.0,1
wfpt.4,0,84,1402,1.2230181885925702,1402,4,Victim,group,274,0.699999999999999,unfair,1.0,0,-0.46095107001019603,One,-1.0,1
wfpt.4,0,85,1403,-0.5804953380399035,1403,4,Victim,group,275,0.5,unfair,1.0,0,-0.9241017019958241,One,-1.0,1
wfpt.4,0,86,1416,-0.8496080363281486,1416,4,Victim,alone,288,0.5,unfair,,1,1.10229207799421,Alone,,1
wfpt.4,0,87,1418,1.166020000633857,1418,4,Victim,group,290,1.0,unfair,0.0,0,-1.02349778599455,Zero,-3.0,1
wfpt.4,0,88,1421,1.1747028716270664,1421,4,Victim,group,293,0.5,unfair,3.0,1,0.8294162359961771,Three,1.0,1
wfpt.4,0,89,1423,1.3143028716270664,1423,4,Victim,group,295,1.0,unfair,3.0,1,0.7343050070048779,Three,1.0,1
wfpt.4,0,90,1426,2.120267941347065,1426,4,Victim,group,298,0.19999999999999898,unfair,4.0,1,0.661767764016986,Four,3.0,1
wfpt.4,0,91,1428,1.0012679413470646,1428,4,Victim,group,300,0.6,unfair,4.0,1,0.532896419987082,Four,3.0,1
wfpt.4,0,92,1432,1.9168141124362794,1432,4,Victim,group,304,0.9,unfair,2.0,1,1.1997512690140901,Two,0.0,1
wfpt.4,0,93,1438,1.6306679413470646,1438,4,Victim,group,310,0.699999999999999,unfair,4.0,1,0.8724151280184741,Four,3.0,1
wfpt.4,0,94,1440,0.7226679413470648,1440,4,Victim,group,312,0.30000000000000104,unfair,4.0,1,1.4643289259984198,Four,3.0,1
wfpt.4,0,95,1441,2.2289028716270662,1441,4,Victim,group,313,1.0,unfair,3.0,1,2.6463836849725295,Three,1.0,1
wfpt.4,0,96,1444,1.86281818859257,1444,4,Victim,group,316,0.4,unfair,1.0,0,-2.07356058599544,One,-1.0,1
wfpt.4,0,97,1447,2.3891190922807812,1447,4,Victim,alone,319,0.4,unfair,,1,0.994910139997955,Alone,,1
wfpt.4,0,98,1448,-1.0846159559935349,1448,4,Victim,group,320,1.0,unfair,0.0,0,-0.879839735018322,Zero,-3.0,1
wfpt.4,0,99,1451,1.9523028716270665,1451,4,Victim,group,323,0.800000000000001,unfair,3.0,1,1.72896830600803,Three,1.0,1
wfpt.4,0,100,1452,0.5928679413470648,1452,4,Victim,group,324,0.9,unfair,4.0,1,0.891570647014305,Four,3.0,1
wfpt.4,0,101,1455,2.3972200006338573,1455,4,Victim,group,327,1.0,unfair,0.0,0,-0.713641876005568,Zero,-3.0,1
wfpt.4,0,102,1457,-0.9026953380399035,1457,4,Victim,group,329,1.0,unfair,1.0,0,-0.678351417998783,One,-1.0,1
wfpt.4,0,103,1460,-0.8236953380399036,1460,4,Victim,group,332,0.699999999999999,unfair,1.0,0,-0.667486824007938,One,-1.0,1
wfpt.4,0,104,1462,0.6274141124362791,1462,4,Victim,group,334,0.9,unfair,2.0,0,-1.4856831060023998,Two,0.0,1
wfpt.4,0,105,1464,0.7122679413470648,1464,4,Victim,group,336,1.2,unfair,4.0,1,0.7082118999969681,Four,3.0,1
wfpt.4,0,106,1465,1.2356679413470646,1465,4,Victim,group,337,0.9,unfair,4.0,1,0.6370068679971149,Four,3.0,1
wfpt.4,0,107,1467,1.120420000633857,1467,4,Victim,group,339,0.0999999999999996,unfair,0.0,0,-0.8873449430102479,Zero,-3.0,1
wfpt.4,0,108,1471,1.4580679413470647,1471,4,Victim,group,343,0.6,unfair,4.0,1,0.8523141209734599,Four,3.0,1
wfpt.4,0,109,1482,0.6810181885925704,1482,4,Victim,group,354,0.4,unfair,1.0,0,-1.09388495900203,One,-1.0,1
wfpt.4,0,110,1484,2.9674141124362787,1484,4,Victim,group,356,1.3,unfair,2.0,0,-1.03029091999633,Two,0.0,1
wfpt.4,0,111,1485,0.9518141124362791,1485,4,Victim,group,357,0.699999999999999,unfair,2.0,0,-0.8325445319933349,Two,0.0,1
wfpt.4,0,112,1492,1.5444141124362791,1492,4,Victim,group,364,0.0999999999999996,unfair,2.0,1,1.35817282201606,Two,0.0,1
wfpt.4,0,113,1493,-2.9446413549160866,1493,4,Victim,group,365,0.19999999999999898,unfair,3.0,1,0.7455302820017099,Three,1.0,1
wfpt.4,0,114,1494,-0.6012159559935348,1494,4,Victim,group,366,1.1,unfair,0.0,0,-0.8302041749993799,Zero,-3.0,1
wfpt.4,0,115,1496,-1.6647391691427313,1496,4,Victim,group,368,1.3,unfair,4.0,1,0.522776172991144,Four,3.0,1
wfpt.4,0,116,1498,3.733319092280782,1498,4,Victim,alone,370,0.6,unfair,,1,0.891712627984816,Alone,,1
wfpt.4,0,117,1499,-7.660495338039905,1499,4,Victim,group,371,0.6,unfair,1.0,0,-1.7993393639917499,One,-1.0,1
wfpt.4,0,118,1503,-0.9830953380399036,1503,4,Victim,group,375,0.4,unfair,1.0,0,-1.01489873498213,One,-1.0,1
wfpt.4,0,119,1508,-1.2584953380399035,1508,4,Victim,group,380,0.6,unfair,1.0,0,-0.9668045089929359,One,-1.0,1
wfpt.4,0,120,1512,1.4333190922807808,1512,4,Victim,alone,384,0.19999999999999898,unfair,,1,1.33002907200716,Alone,,1
wfpt.4,0,121,1513,0.6950679413470648,1513,4,Victim,group,385,0.699999999999999,unfair,4.0,1,0.675415475998307,Four,3.0,1
wfpt.4,0,122,1521,1.3611028716270663,1521,4,Victim,group,393,1.0,unfair,3.0,1,0.678681138990214,Three,1.0,1
wfpt.4,0,123,1524,1.3020679413470648,1524,4,Victim,group,396,1.2,unfair,4.0,1,1.1763900509977199,Four,3.0,1
wfpt.4,0,124,1525,0.7975190922807809,1525,4,Victim,alone,397,0.800000000000001,unfair,,1,0.7783378759922929,Alone,,1
wfpt.4,0,125,1534,0.759319092280781,1534,4,Victim,alone,406,0.800000000000001,unfair,,1,0.608625493012369,Alone,,1
wfpt.4,0,126,1538,1.1340679413470647,1538,4,Victim,group,410,1.0,unfair,4.0,1,0.512956581020262,Four,3.0,1
wfpt.4,0,127,1541,1.2639190922807808,1541,4,Victim,alone,413,0.5,unfair,,1,0.7053695170034191,Alone,,1
wfpt.4,0,128,1545,0.8963028716270662,1545,4,Victim,group,417,1.2,unfair,3.0,1,1.2464230550103799,Three,1.0,1
wfpt.4,0,129,1546,0.5670141124362791,1546,4,Victim,group,418,1.1,unfair,2.0,1,1.45829904600396,Two,0.0,1
wfpt.4,0,130,1554,0.8944679413470649,1554,4,Victim,group,426,0.4,unfair,4.0,1,1.09390005099704,Four,3.0,1
